"success","trial_type","trial_index","time_elapsed","internal_node_id","condition","subject","screen_width","screen_height","language","codeword","rt","responses","url","view_history","test_part","final_height_px","final_width_px","scale_factor","stimulus","key_press","learningType","presentedImage","presentedLabel","button_pressed","response"
"true","fullscreen","0","3408","0.0-0.0","FL","td2t8o9pe4","1536","864","de","HL06IN19","","","","","","","","","","","","","","",""
"","survey-html-form","1","9841","0.0-1.0","FL","td2t8o9pe4","1536","864","de","HL06IN19","6429","{""language"":""de""}","","","","","","","","","","","","",""
"","external-html","2","34208","0.0-2.0-0.0","FL","td2t8o9pe4","1536","864","de","HL06IN19","24299","","text/information.html","","","","","","","","","","","",""
"","external-html","3","48832","0.0-2.0-1.0","FL","td2t8o9pe4","1536","864","de","HL06IN19","14333","","text/consent.html","","","","","","","","","","","",""
"","survey-html-form","4","161161","0.0-2.0-2.0","FL","td2t8o9pe4","1536","864","de","HL06IN19","112325","{""codeword_enter"":""HL06IN19""}","","","","","","","","","","","","",""
"","instructions","5","178023","0.0-4.0","FL","td2t8o9pe4","1536","864","de","HL06IN19","NA","","","[{""page_index"":0,""viewing_time"":2505},{""page_index"":1,""viewing_time"":12839}]","instructions","","","","","","","","","",""
"","resize","6","261624","0.0-5.0","FL","td2t8o9pe4","1536","864","de","HL06IN19","","","","","","","421","2.6730158730158733","","","","","","",""
"","image-keyboard-response","7","261816","0.0-6.0-0.0","FL","td2t8o9pe4","1536","864","de","HL06IN19","null","","","","","","","","learning/Slide1.JPG","null","","","","",""
"","html-keyboard-response","8","262990","0.0-6.0-1.0","FL","td2t8o9pe4","1536","864","de","HL06IN19","null","","","","learningBlock1","","","","That was a tob.","null","","","","",""
"","html-keyboard-response","9","264001","0.0-6.0-2.0","FL","td2t8o9pe4","1536","864","de","HL06IN19","null","","","","learningBlock1","","","","<div style=""font-size:60px;""> </div>","null","FL","learning/Slide1.JPG","That was a tob.","",""
"","image-keyboard-response","10","264185","0.0-6.0-0.1","FL","td2t8o9pe4","1536","864","de","HL06IN19","null","","","","","","","","learning/Slide2.JPG","null","","","","",""
"","html-keyboard-response","11","265347","0.0-6.0-1.1","FL","td2t8o9pe4","1536","864","de","HL06IN19","null","","","","learningBlock1","","","","That was a wug.","null","","","","",""
"","html-keyboard-response","12","266353","0.0-6.0-2.1","FL","td2t8o9pe4","1536","864","de","HL06IN19","null","","","","learningBlock1","","","","<div style=""font-size:60px;""> </div>","null","FL","learning/Slide2.JPG","That was a wug.","",""
"","image-keyboard-response","13","266530","0.0-6.0-0.2","FL","td2t8o9pe4","1536","864","de","HL06IN19","null","","","","","","","","learning/Slide3.JPG","null","","","","",""
"","html-keyboard-response","14","267715","0.0-6.0-1.2","FL","td2t8o9pe4","1536","864","de","HL06IN19","null","","","","learningBlock1","","","","That was a bim.","null","","","","",""
"","html-keyboard-response","15","268728","0.0-6.0-2.2","FL","td2t8o9pe4","1536","864","de","HL06IN19","null","","","","learningBlock1","","","","<div style=""font-size:60px;""> </div>","null","FL","learning/Slide3.JPG","That was a bim.","",""
"","image-keyboard-response","16","268910","0.0-6.0-0.3","FL","td2t8o9pe4","1536","864","de","HL06IN19","null","","","","","","","","learning/Slide4.JPG","null","","","","",""
"","html-keyboard-response","17","270083","0.0-6.0-1.3","FL","td2t8o9pe4","1536","864","de","HL06IN19","null","","","","learningBlock1","","","","That was a dep.","null","","","","",""
"","html-keyboard-response","18","271096","0.0-6.0-2.3","FL","td2t8o9pe4","1536","864","de","HL06IN19","null","","","","learningBlock1","","","","<div style=""font-size:60px;""> </div>","null","FL","learning/Slide4.JPG","That was a dep.","",""
"","image-keyboard-response","19","271288","0.0-6.0-0.4","FL","td2t8o9pe4","1536","864","de","HL06IN19","null","","","","","","","","learning/Slide5.JPG","null","","","","",""
"","html-keyboard-response","20","272472","0.0-6.0-1.4","FL","td2t8o9pe4","1536","864","de","HL06IN19","null","","","","learningBlock1","","","","That was a wug.","null","","","","",""
"","html-keyboard-response","21","273475","0.0-6.0-2.4","FL","td2t8o9pe4","1536","864","de","HL06IN19","null","","","","learningBlock1","","","","<div style=""font-size:60px;""> </div>","null","FL","learning/Slide5.JPG","That was a wug.","",""
"","image-keyboard-response","22","273656","0.0-6.0-0.5","FL","td2t8o9pe4","1536","864","de","HL06IN19","null","","","","","","","","learning/Slide6.JPG","null","","","","",""
"","html-keyboard-response","23","274840","0.0-6.0-1.5","FL","td2t8o9pe4","1536","864","de","HL06IN19","null","","","","learningBlock1","","","","That was a dep.","null","","","","",""
"","html-keyboard-response","24","275853","0.0-6.0-2.5","FL","td2t8o9pe4","1536","864","de","HL06IN19","null","","","","learningBlock1","","","","<div style=""font-size:60px;""> </div>","null","FL","learning/Slide6.JPG","That was a dep.","",""
"","image-keyboard-response","25","276047","0.0-6.0-0.6","FL","td2t8o9pe4","1536","864","de","HL06IN19","null","","","","","","","","learning/Slide7.JPG","null","","","","",""
"","html-keyboard-response","26","277219","0.0-6.0-1.6","FL","td2t8o9pe4","1536","864","de","HL06IN19","null","","","","learningBlock1","","","","That was a wug.","null","","","","",""
"","html-keyboard-response","27","278222","0.0-6.0-2.6","FL","td2t8o9pe4","1536","864","de","HL06IN19","null","","","","learningBlock1","","","","<div style=""font-size:60px;""> </div>","null","FL","learning/Slide7.JPG","That was a wug.","",""
"","image-keyboard-response","28","278413","0.0-6.0-0.7","FL","td2t8o9pe4","1536","864","de","HL06IN19","null","","","","","","","","learning/Slide8.JPG","null","","","","",""
"","html-keyboard-response","29","279587","0.0-6.0-1.7","FL","td2t8o9pe4","1536","864","de","HL06IN19","null","","","","learningBlock1","","","","That was a bim.","null","","","","",""
"","html-keyboard-response","30","280599","0.0-6.0-2.7","FL","td2t8o9pe4","1536","864","de","HL06IN19","null","","","","learningBlock1","","","","<div style=""font-size:60px;""> </div>","null","FL","learning/Slide8.JPG","That was a bim.","",""
"","image-keyboard-response","31","280792","0.0-6.0-0.8","FL","td2t8o9pe4","1536","864","de","HL06IN19","null","","","","","","","","learning/Slide9.JPG","null","","","","",""
"","html-keyboard-response","32","281965","0.0-6.0-1.8","FL","td2t8o9pe4","1536","864","de","HL06IN19","null","","","","learningBlock1","","","","That was a wug.","null","","","","",""
"","html-keyboard-response","33","282969","0.0-6.0-2.8","FL","td2t8o9pe4","1536","864","de","HL06IN19","null","","","","learningBlock1","","","","<div style=""font-size:60px;""> </div>","null","FL","learning/Slide9.JPG","That was a wug.","",""
"","image-keyboard-response","34","283149","0.0-6.0-0.9","FL","td2t8o9pe4","1536","864","de","HL06IN19","null","","","","","","","","learning/Slide10.JPG","null","","","","",""
"","html-keyboard-response","35","284328","0.0-6.0-1.9","FL","td2t8o9pe4","1536","864","de","HL06IN19","null","","","","learningBlock1","","","","That was a dep.","null","","","","",""
"","html-keyboard-response","36","285347","0.0-6.0-2.9","FL","td2t8o9pe4","1536","864","de","HL06IN19","null","","","","learningBlock1","","","","<div style=""font-size:60px;""> </div>","null","FL","learning/Slide10.JPG","That was a dep.","",""
"","image-keyboard-response","37","285539","0.0-6.0-0.10","FL","td2t8o9pe4","1536","864","de","HL06IN19","null","","","","","","","","learning/Slide11.JPG","null","","","","",""
"","html-keyboard-response","38","286712","0.0-6.0-1.10","FL","td2t8o9pe4","1536","864","de","HL06IN19","null","","","","learningBlock1","","","","That was a tob.","null","","","","",""
"","html-keyboard-response","39","287726","0.0-6.0-2.10","FL","td2t8o9pe4","1536","864","de","HL06IN19","null","","","","learningBlock1","","","","<div style=""font-size:60px;""> </div>","null","FL","learning/Slide11.JPG","That was a tob.","",""
"","image-keyboard-response","40","287907","0.0-6.0-0.11","FL","td2t8o9pe4","1536","864","de","HL06IN19","null","","","","","","","","learning/Slide12.JPG","null","","","","",""
"","html-keyboard-response","41","289085","0.0-6.0-1.11","FL","td2t8o9pe4","1536","864","de","HL06IN19","null","","","","learningBlock1","","","","That was a dep.","null","","","","",""
"","html-keyboard-response","42","290104","0.0-6.0-2.11","FL","td2t8o9pe4","1536","864","de","HL06IN19","null","","","","learningBlock1","","","","<div style=""font-size:60px;""> </div>","null","FL","learning/Slide12.JPG","That was a dep.","",""
"","image-keyboard-response","43","290296","0.0-6.0-0.12","FL","td2t8o9pe4","1536","864","de","HL06IN19","null","","","","","","","","learning/Slide13.JPG","null","","","","",""
"","html-keyboard-response","44","291470","0.0-6.0-1.12","FL","td2t8o9pe4","1536","864","de","HL06IN19","null","","","","learningBlock1","","","","That was a bim.","null","","","","",""
"","html-keyboard-response","45","292482","0.0-6.0-2.12","FL","td2t8o9pe4","1536","864","de","HL06IN19","null","","","","learningBlock1","","","","<div style=""font-size:60px;""> </div>","null","FL","learning/Slide13.JPG","That was a bim.","",""
"","image-keyboard-response","46","292665","0.0-6.0-0.13","FL","td2t8o9pe4","1536","864","de","HL06IN19","null","","","","","","","","learning/Slide14.JPG","null","","","","",""
"","html-keyboard-response","47","293828","0.0-6.0-1.13","FL","td2t8o9pe4","1536","864","de","HL06IN19","null","","","","learningBlock1","","","","That was a wug.","null","","","","",""
"","html-keyboard-response","48","294829","0.0-6.0-2.13","FL","td2t8o9pe4","1536","864","de","HL06IN19","null","","","","learningBlock1","","","","<div style=""font-size:60px;""> </div>","null","FL","learning/Slide14.JPG","That was a wug.","",""
"","image-keyboard-response","49","295021","0.0-6.0-0.14","FL","td2t8o9pe4","1536","864","de","HL06IN19","null","","","","","","","","learning/Slide15.JPG","null","","","","",""
"","html-keyboard-response","50","296183","0.0-6.0-1.14","FL","td2t8o9pe4","1536","864","de","HL06IN19","null","","","","learningBlock1","","","","That was a tob.","null","","","","",""
"","html-keyboard-response","51","297197","0.0-6.0-2.14","FL","td2t8o9pe4","1536","864","de","HL06IN19","null","","","","learningBlock1","","","","<div style=""font-size:60px;""> </div>","null","FL","learning/Slide15.JPG","That was a tob.","",""
"","image-keyboard-response","52","297378","0.0-6.0-0.15","FL","td2t8o9pe4","1536","864","de","HL06IN19","null","","","","","","","","learning/Slide16.JPG","null","","","","",""
"","html-keyboard-response","53","298563","0.0-6.0-1.15","FL","td2t8o9pe4","1536","864","de","HL06IN19","null","","","","learningBlock1","","","","That was a dep.","null","","","","",""
"","html-keyboard-response","54","299565","0.0-6.0-2.15","FL","td2t8o9pe4","1536","864","de","HL06IN19","null","","","","learningBlock1","","","","<div style=""font-size:60px;""> </div>","null","FL","learning/Slide16.JPG","That was a dep.","",""
"","image-keyboard-response","55","299757","0.0-6.0-0.16","FL","td2t8o9pe4","1536","864","de","HL06IN19","null","","","","","","","","learning/Slide17.JPG","null","","","","",""
"","html-keyboard-response","56","300942","0.0-6.0-1.16","FL","td2t8o9pe4","1536","864","de","HL06IN19","null","","","","learningBlock1","","","","That was a bim.","null","","","","",""
"","html-keyboard-response","57","301943","0.0-6.0-2.16","FL","td2t8o9pe4","1536","864","de","HL06IN19","null","","","","learningBlock1","","","","<div style=""font-size:60px;""> </div>","null","FL","learning/Slide17.JPG","That was a bim.","",""
"","image-keyboard-response","58","302127","0.0-6.0-0.17","FL","td2t8o9pe4","1536","864","de","HL06IN19","null","","","","","","","","learning/Slide18.JPG","null","","","","",""
"","html-keyboard-response","59","303299","0.0-6.0-1.17","FL","td2t8o9pe4","1536","864","de","HL06IN19","null","","","","learningBlock1","","","","That was a tob.","null","","","","",""
"","html-keyboard-response","60","304312","0.0-6.0-2.17","FL","td2t8o9pe4","1536","864","de","HL06IN19","null","","","","learningBlock1","","","","<div style=""font-size:60px;""> </div>","null","FL","learning/Slide18.JPG","That was a tob.","",""
"","image-keyboard-response","61","304491","0.0-6.0-0.18","FL","td2t8o9pe4","1536","864","de","HL06IN19","null","","","","","","","","learning/Slide19.JPG","null","","","","",""
"","html-keyboard-response","62","305656","0.0-6.0-1.18","FL","td2t8o9pe4","1536","864","de","HL06IN19","null","","","","learningBlock1","","","","That was a wug.","null","","","","",""
"","html-keyboard-response","63","306671","0.0-6.0-2.18","FL","td2t8o9pe4","1536","864","de","HL06IN19","null","","","","learningBlock1","","","","<div style=""font-size:60px;""> </div>","null","FL","learning/Slide19.JPG","That was a wug.","",""
"","image-keyboard-response","64","306861","0.0-6.0-0.19","FL","td2t8o9pe4","1536","864","de","HL06IN19","null","","","","","","","","learning/Slide20.JPG","null","","","","",""
"","html-keyboard-response","65","308035","0.0-6.0-1.19","FL","td2t8o9pe4","1536","864","de","HL06IN19","null","","","","learningBlock1","","","","That was a bim.","null","","","","",""
"","html-keyboard-response","66","309038","0.0-6.0-2.19","FL","td2t8o9pe4","1536","864","de","HL06IN19","null","","","","learningBlock1","","","","<div style=""font-size:60px;""> </div>","null","FL","learning/Slide20.JPG","That was a bim.","",""
"","image-keyboard-response","67","309229","0.0-6.0-0.20","FL","td2t8o9pe4","1536","864","de","HL06IN19","null","","","","","","","","learning/Slide21.JPG","null","","","","",""
"","html-keyboard-response","68","310403","0.0-6.0-1.20","FL","td2t8o9pe4","1536","864","de","HL06IN19","null","","","","learningBlock1","","","","That was a dep.","null","","","","",""
"","html-keyboard-response","69","311416","0.0-6.0-2.20","FL","td2t8o9pe4","1536","864","de","HL06IN19","null","","","","learningBlock1","","","","<div style=""font-size:60px;""> </div>","null","FL","learning/Slide21.JPG","That was a dep.","",""
"","image-keyboard-response","70","311608","0.0-6.0-0.21","FL","td2t8o9pe4","1536","864","de","HL06IN19","null","","","","","","","","learning/Slide22.JPG","null","","","","",""
"","html-keyboard-response","71","312782","0.0-6.0-1.21","FL","td2t8o9pe4","1536","864","de","HL06IN19","null","","","","learningBlock1","","","","That was a bim.","null","","","","",""
"","html-keyboard-response","72","313796","0.0-6.0-2.21","FL","td2t8o9pe4","1536","864","de","HL06IN19","null","","","","learningBlock1","","","","<div style=""font-size:60px;""> </div>","null","FL","learning/Slide22.JPG","That was a bim.","",""
"","image-keyboard-response","73","313987","0.0-6.0-0.22","FL","td2t8o9pe4","1536","864","de","HL06IN19","null","","","","","","","","learning/Slide23.JPG","null","","","","",""
"","html-keyboard-response","74","315150","0.0-6.0-1.22","FL","td2t8o9pe4","1536","864","de","HL06IN19","null","","","","learningBlock1","","","","That was a tob.","null","","","","",""
"","html-keyboard-response","75","316152","0.0-6.0-2.22","FL","td2t8o9pe4","1536","864","de","HL06IN19","null","","","","learningBlock1","","","","<div style=""font-size:60px;""> </div>","null","FL","learning/Slide23.JPG","That was a tob.","",""
"","image-keyboard-response","76","316333","0.0-6.0-0.23","FL","td2t8o9pe4","1536","864","de","HL06IN19","null","","","","","","","","learning/Slide24.JPG","null","","","","",""
"","html-keyboard-response","77","317507","0.0-6.0-1.23","FL","td2t8o9pe4","1536","864","de","HL06IN19","null","","","","learningBlock1","","","","That was a wug.","null","","","","",""
"","html-keyboard-response","78","318520","0.0-6.0-2.23","FL","td2t8o9pe4","1536","864","de","HL06IN19","null","","","","learningBlock1","","","","<div style=""font-size:60px;""> </div>","null","FL","learning/Slide24.JPG","That was a wug.","",""
"","image-keyboard-response","79","318712","0.0-6.0-0.24","FL","td2t8o9pe4","1536","864","de","HL06IN19","null","","","","","","","","learning/Slide25.JPG","null","","","","",""
"","html-keyboard-response","80","319876","0.0-6.0-1.24","FL","td2t8o9pe4","1536","864","de","HL06IN19","null","","","","learningBlock1","","","","That was a dep.","null","","","","",""
"","html-keyboard-response","81","320877","0.0-6.0-2.24","FL","td2t8o9pe4","1536","864","de","HL06IN19","null","","","","learningBlock1","","","","<div style=""font-size:60px;""> </div>","null","FL","learning/Slide25.JPG","That was a dep.","",""
"","image-keyboard-response","82","321059","0.0-6.0-0.25","FL","td2t8o9pe4","1536","864","de","HL06IN19","null","","","","","","","","learning/Slide26.JPG","null","","","","",""
"","html-keyboard-response","83","322221","0.0-6.0-1.25","FL","td2t8o9pe4","1536","864","de","HL06IN19","null","","","","learningBlock1","","","","That was a wug.","null","","","","",""
"","html-keyboard-response","84","323224","0.0-6.0-2.25","FL","td2t8o9pe4","1536","864","de","HL06IN19","null","","","","learningBlock1","","","","<div style=""font-size:60px;""> </div>","null","FL","learning/Slide26.JPG","That was a wug.","",""
"","image-keyboard-response","85","323416","0.0-6.0-0.26","FL","td2t8o9pe4","1536","864","de","HL06IN19","null","","","","","","","","learning/Slide27.JPG","null","","","","",""
"","html-keyboard-response","86","324590","0.0-6.0-1.26","FL","td2t8o9pe4","1536","864","de","HL06IN19","null","","","","learningBlock1","","","","That was a bim.","null","","","","",""
"","html-keyboard-response","87","325604","0.0-6.0-2.26","FL","td2t8o9pe4","1536","864","de","HL06IN19","null","","","","learningBlock1","","","","<div style=""font-size:60px;""> </div>","null","FL","learning/Slide27.JPG","That was a bim.","",""
"","image-keyboard-response","88","325795","0.0-6.0-0.27","FL","td2t8o9pe4","1536","864","de","HL06IN19","null","","","","","","","","learning/Slide28.JPG","null","","","","",""
"","html-keyboard-response","89","326968","0.0-6.0-1.27","FL","td2t8o9pe4","1536","864","de","HL06IN19","null","","","","learningBlock1","","","","That was a dep.","null","","","","",""
"","html-keyboard-response","90","327980","0.0-6.0-2.27","FL","td2t8o9pe4","1536","864","de","HL06IN19","null","","","","learningBlock1","","","","<div style=""font-size:60px;""> </div>","null","FL","learning/Slide28.JPG","That was a dep.","",""
"","image-keyboard-response","91","328174","0.0-6.0-0.28","FL","td2t8o9pe4","1536","864","de","HL06IN19","null","","","","","","","","learning/Slide29.JPG","null","","","","",""
"","html-keyboard-response","92","329358","0.0-6.0-1.28","FL","td2t8o9pe4","1536","864","de","HL06IN19","null","","","","learningBlock1","","","","That was a tob.","null","","","","",""
"","html-keyboard-response","93","330361","0.0-6.0-2.28","FL","td2t8o9pe4","1536","864","de","HL06IN19","null","","","","learningBlock1","","","","<div style=""font-size:60px;""> </div>","null","FL","learning/Slide29.JPG","That was a tob.","",""
"","image-keyboard-response","94","330548","0.0-6.0-0.29","FL","td2t8o9pe4","1536","864","de","HL06IN19","null","","","","","","","","learning/Slide30.JPG","null","","","","",""
"","html-keyboard-response","95","331715","0.0-6.0-1.29","FL","td2t8o9pe4","1536","864","de","HL06IN19","null","","","","learningBlock1","","","","That was a dep.","null","","","","",""
"","html-keyboard-response","96","332718","0.0-6.0-2.29","FL","td2t8o9pe4","1536","864","de","HL06IN19","null","","","","learningBlock1","","","","<div style=""font-size:60px;""> </div>","null","FL","learning/Slide30.JPG","That was a dep.","",""
"","image-keyboard-response","97","332898","0.0-6.0-0.30","FL","td2t8o9pe4","1536","864","de","HL06IN19","null","","","","","","","","learning/Slide31.JPG","null","","","","",""
"","html-keyboard-response","98","334083","0.0-6.0-1.30","FL","td2t8o9pe4","1536","864","de","HL06IN19","null","","","","learningBlock1","","","","That was a wug.","null","","","","",""
"","html-keyboard-response","99","335097","0.0-6.0-2.30","FL","td2t8o9pe4","1536","864","de","HL06IN19","null","","","","learningBlock1","","","","<div style=""font-size:60px;""> </div>","null","FL","learning/Slide31.JPG","That was a wug.","",""
"","image-keyboard-response","100","335282","0.0-6.0-0.31","FL","td2t8o9pe4","1536","864","de","HL06IN19","null","","","","","","","","learning/Slide32.JPG","null","","","","",""
"","html-keyboard-response","101","336453","0.0-6.0-1.31","FL","td2t8o9pe4","1536","864","de","HL06IN19","null","","","","learningBlock1","","","","That was a tob.","null","","","","",""
"","html-keyboard-response","102","337465","0.0-6.0-2.31","FL","td2t8o9pe4","1536","864","de","HL06IN19","null","","","","learningBlock1","","","","<div style=""font-size:60px;""> </div>","null","FL","learning/Slide32.JPG","That was a tob.","",""
"","image-keyboard-response","103","337656","0.0-6.0-0.32","FL","td2t8o9pe4","1536","864","de","HL06IN19","null","","","","","","","","learning/Slide33.JPG","null","","","","",""
"","html-keyboard-response","104","338841","0.0-6.0-1.32","FL","td2t8o9pe4","1536","864","de","HL06IN19","null","","","","learningBlock1","","","","That was a bim.","null","","","","",""
"","html-keyboard-response","105","339854","0.0-6.0-2.32","FL","td2t8o9pe4","1536","864","de","HL06IN19","null","","","","learningBlock1","","","","<div style=""font-size:60px;""> </div>","null","FL","learning/Slide33.JPG","That was a bim.","",""
"","image-keyboard-response","106","340035","0.0-6.0-0.33","FL","td2t8o9pe4","1536","864","de","HL06IN19","null","","","","","","","","learning/Slide34.JPG","null","","","","",""
"","html-keyboard-response","107","341217","0.0-6.0-1.33","FL","td2t8o9pe4","1536","864","de","HL06IN19","null","","","","learningBlock1","","","","That was a tob.","null","","","","",""
"","html-keyboard-response","108","342221","0.0-6.0-2.33","FL","td2t8o9pe4","1536","864","de","HL06IN19","null","","","","learningBlock1","","","","<div style=""font-size:60px;""> </div>","null","FL","learning/Slide34.JPG","That was a tob.","",""
"","image-keyboard-response","109","342403","0.0-6.0-0.34","FL","td2t8o9pe4","1536","864","de","HL06IN19","null","","","","","","","","learning/Slide35.JPG","null","","","","",""
"","html-keyboard-response","110","343587","0.0-6.0-1.34","FL","td2t8o9pe4","1536","864","de","HL06IN19","null","","","","learningBlock1","","","","That was a bim.","null","","","","",""
"","html-keyboard-response","111","344600","0.0-6.0-2.34","FL","td2t8o9pe4","1536","864","de","HL06IN19","null","","","","learningBlock1","","","","<div style=""font-size:60px;""> </div>","null","FL","learning/Slide35.JPG","That was a bim.","",""
"","image-keyboard-response","112","344792","0.0-6.0-0.35","FL","td2t8o9pe4","1536","864","de","HL06IN19","null","","","","","","","","learning/Slide36.JPG","null","","","","",""
"","html-keyboard-response","113","345954","0.0-6.0-1.35","FL","td2t8o9pe4","1536","864","de","HL06IN19","null","","","","learningBlock1","","","","That was a dep.","null","","","","",""
"","html-keyboard-response","114","346968","0.0-6.0-2.35","FL","td2t8o9pe4","1536","864","de","HL06IN19","null","","","","learningBlock1","","","","<div style=""font-size:60px;""> </div>","null","FL","learning/Slide36.JPG","That was a dep.","",""
"","image-keyboard-response","115","347149","0.0-6.0-0.36","FL","td2t8o9pe4","1536","864","de","HL06IN19","null","","","","","","","","learning/Slide37.JPG","null","","","","",""
"","html-keyboard-response","116","348334","0.0-6.0-1.36","FL","td2t8o9pe4","1536","864","de","HL06IN19","null","","","","learningBlock1","","","","That was a tob.","null","","","","",""
"","html-keyboard-response","117","349347","0.0-6.0-2.36","FL","td2t8o9pe4","1536","864","de","HL06IN19","null","","","","learningBlock1","","","","<div style=""font-size:60px;""> </div>","null","FL","learning/Slide37.JPG","That was a tob.","",""
"","image-keyboard-response","118","349539","0.0-6.0-0.37","FL","td2t8o9pe4","1536","864","de","HL06IN19","null","","","","","","","","learning/Slide38.JPG","null","","","","",""
"","html-keyboard-response","119","350712","0.0-6.0-1.37","FL","td2t8o9pe4","1536","864","de","HL06IN19","null","","","","learningBlock1","","","","That was a wug.","null","","","","",""
"","html-keyboard-response","120","351727","0.0-6.0-2.37","FL","td2t8o9pe4","1536","864","de","HL06IN19","null","","","","learningBlock1","","","","<div style=""font-size:60px;""> </div>","null","FL","learning/Slide38.JPG","That was a wug.","",""
"","image-keyboard-response","121","351906","0.0-6.0-0.38","FL","td2t8o9pe4","1536","864","de","HL06IN19","null","","","","","","","","learning/Slide39.JPG","null","","","","",""
"","html-keyboard-response","122","353080","0.0-6.0-1.38","FL","td2t8o9pe4","1536","864","de","HL06IN19","null","","","","learningBlock1","","","","That was a bim.","null","","","","",""
"","html-keyboard-response","123","354083","0.0-6.0-2.38","FL","td2t8o9pe4","1536","864","de","HL06IN19","null","","","","learningBlock1","","","","<div style=""font-size:60px;""> </div>","null","FL","learning/Slide39.JPG","That was a bim.","",""
"","image-keyboard-response","124","354264","0.0-6.0-0.39","FL","td2t8o9pe4","1536","864","de","HL06IN19","null","","","","","","","","learning/Slide40.JPG","null","","","","",""
"","html-keyboard-response","125","355427","0.0-6.0-1.39","FL","td2t8o9pe4","1536","864","de","HL06IN19","null","","","","learningBlock1","","","","That was a tob.","null","","","","",""
"","html-keyboard-response","126","356429","0.0-6.0-2.39","FL","td2t8o9pe4","1536","864","de","HL06IN19","null","","","","learningBlock1","","","","<div style=""font-size:60px;""> </div>","null","FL","learning/Slide40.JPG","That was a tob.","",""
"","image-keyboard-response","127","356621","0.0-6.0-0.40","FL","td2t8o9pe4","1536","864","de","HL06IN19","null","","","","","","","","learning/Slide41.JPG","null","","","","",""
"","html-keyboard-response","128","357794","0.0-6.0-1.40","FL","td2t8o9pe4","1536","864","de","HL06IN19","null","","","","learningBlock1","","","","That was a bim.","null","","","","",""
"","html-keyboard-response","129","358797","0.0-6.0-2.40","FL","td2t8o9pe4","1536","864","de","HL06IN19","null","","","","learningBlock1","","","","<div style=""font-size:60px;""> </div>","null","FL","learning/Slide41.JPG","That was a bim.","",""
"","image-keyboard-response","130","358991","0.0-6.0-0.41","FL","td2t8o9pe4","1536","864","de","HL06IN19","null","","","","","","","","learning/Slide42.JPG","null","","","","",""
"","html-keyboard-response","131","360173","0.0-6.0-1.41","FL","td2t8o9pe4","1536","864","de","HL06IN19","null","","","","learningBlock1","","","","That was a dep.","null","","","","",""
"","html-keyboard-response","132","361187","0.0-6.0-2.41","FL","td2t8o9pe4","1536","864","de","HL06IN19","null","","","","learningBlock1","","","","<div style=""font-size:60px;""> </div>","null","FL","learning/Slide42.JPG","That was a dep.","",""
"","image-keyboard-response","133","361368","0.0-6.0-0.42","FL","td2t8o9pe4","1536","864","de","HL06IN19","null","","","","","","","","learning/Slide43.JPG","null","","","","",""
"","html-keyboard-response","134","362542","0.0-6.0-1.42","FL","td2t8o9pe4","1536","864","de","HL06IN19","null","","","","learningBlock1","","","","That was a wug.","null","","","","",""
"","html-keyboard-response","135","363557","0.0-6.0-2.42","FL","td2t8o9pe4","1536","864","de","HL06IN19","null","","","","learningBlock1","","","","<div style=""font-size:60px;""> </div>","null","FL","learning/Slide43.JPG","That was a wug.","",""
"","image-keyboard-response","136","363746","0.0-6.0-0.43","FL","td2t8o9pe4","1536","864","de","HL06IN19","null","","","","","","","","learning/Slide44.JPG","null","","","","",""
"","html-keyboard-response","137","364931","0.0-6.0-1.43","FL","td2t8o9pe4","1536","864","de","HL06IN19","null","","","","learningBlock1","","","","That was a bim.","null","","","","",""
"","html-keyboard-response","138","365934","0.0-6.0-2.43","FL","td2t8o9pe4","1536","864","de","HL06IN19","null","","","","learningBlock1","","","","<div style=""font-size:60px;""> </div>","null","FL","learning/Slide44.JPG","That was a bim.","",""
"","image-keyboard-response","139","366126","0.0-6.0-0.44","FL","td2t8o9pe4","1536","864","de","HL06IN19","null","","","","","","","","learning/Slide45.JPG","null","","","","",""
"","html-keyboard-response","140","367300","0.0-6.0-1.44","FL","td2t8o9pe4","1536","864","de","HL06IN19","null","","","","learningBlock1","","","","That was a wug.","null","","","","",""
"","html-keyboard-response","141","368302","0.0-6.0-2.44","FL","td2t8o9pe4","1536","864","de","HL06IN19","null","","","","learningBlock1","","","","<div style=""font-size:60px;""> </div>","null","FL","learning/Slide45.JPG","That was a wug.","",""
"","image-keyboard-response","142","368482","0.0-6.0-0.45","FL","td2t8o9pe4","1536","864","de","HL06IN19","null","","","","","","","","learning/Slide46.JPG","null","","","","",""
"","html-keyboard-response","143","369667","0.0-6.0-1.45","FL","td2t8o9pe4","1536","864","de","HL06IN19","null","","","","learningBlock1","","","","That was a dep.","null","","","","",""
"","html-keyboard-response","144","370669","0.0-6.0-2.45","FL","td2t8o9pe4","1536","864","de","HL06IN19","null","","","","learningBlock1","","","","<div style=""font-size:60px;""> </div>","null","FL","learning/Slide46.JPG","That was a dep.","",""
"","image-keyboard-response","145","370861","0.0-6.0-0.46","FL","td2t8o9pe4","1536","864","de","HL06IN19","null","","","","","","","","learning/Slide47.JPG","null","","","","",""
"","html-keyboard-response","146","372046","0.0-6.0-1.46","FL","td2t8o9pe4","1536","864","de","HL06IN19","null","","","","learningBlock1","","","","That was a tob.","null","","","","",""
"","html-keyboard-response","147","373048","0.0-6.0-2.46","FL","td2t8o9pe4","1536","864","de","HL06IN19","null","","","","learningBlock1","","","","<div style=""font-size:60px;""> </div>","null","FL","learning/Slide47.JPG","That was a tob.","",""
"","image-keyboard-response","148","373229","0.0-6.0-0.47","FL","td2t8o9pe4","1536","864","de","HL06IN19","null","","","","","","","","learning/Slide48.JPG","null","","","","",""
"","html-keyboard-response","149","374413","0.0-6.0-1.47","FL","td2t8o9pe4","1536","864","de","HL06IN19","null","","","","learningBlock1","","","","That was a bim.","null","","","","",""
"","html-keyboard-response","150","375420","0.0-6.0-2.47","FL","td2t8o9pe4","1536","864","de","HL06IN19","null","","","","learningBlock1","","","","<div style=""font-size:60px;""> </div>","null","FL","learning/Slide48.JPG","That was a bim.","",""
"","image-keyboard-response","151","375607","0.0-6.0-0.48","FL","td2t8o9pe4","1536","864","de","HL06IN19","null","","","","","","","","learning/Slide49.JPG","null","","","","",""
"","html-keyboard-response","152","376771","0.0-6.0-1.48","FL","td2t8o9pe4","1536","864","de","HL06IN19","null","","","","learningBlock1","","","","That was a dep.","null","","","","",""
"","html-keyboard-response","153","377784","0.0-6.0-2.48","FL","td2t8o9pe4","1536","864","de","HL06IN19","null","","","","learningBlock1","","","","<div style=""font-size:60px;""> </div>","null","FL","learning/Slide49.JPG","That was a dep.","",""
"","image-keyboard-response","154","377977","0.0-6.0-0.49","FL","td2t8o9pe4","1536","864","de","HL06IN19","null","","","","","","","","learning/Slide50.JPG","null","","","","",""
"","html-keyboard-response","155","379150","0.0-6.0-1.49","FL","td2t8o9pe4","1536","864","de","HL06IN19","null","","","","learningBlock1","","","","That was a tob.","null","","","","",""
"","html-keyboard-response","156","380174","0.0-6.0-2.49","FL","td2t8o9pe4","1536","864","de","HL06IN19","null","","","","learningBlock1","","","","<div style=""font-size:60px;""> </div>","null","FL","learning/Slide50.JPG","That was a tob.","",""
"","image-keyboard-response","157","380365","0.0-6.0-0.50","FL","td2t8o9pe4","1536","864","de","HL06IN19","null","","","","","","","","learning/Slide51.JPG","null","","","","",""
"","html-keyboard-response","158","381540","0.0-6.0-1.50","FL","td2t8o9pe4","1536","864","de","HL06IN19","null","","","","learningBlock1","","","","That was a bim.","null","","","","",""
"","html-keyboard-response","159","382552","0.0-6.0-2.50","FL","td2t8o9pe4","1536","864","de","HL06IN19","null","","","","learningBlock1","","","","<div style=""font-size:60px;""> </div>","null","FL","learning/Slide51.JPG","That was a bim.","",""
"","image-keyboard-response","160","382733","0.0-6.0-0.51","FL","td2t8o9pe4","1536","864","de","HL06IN19","null","","","","","","","","learning/Slide52.JPG","null","","","","",""
"","html-keyboard-response","161","383918","0.0-6.0-1.51","FL","td2t8o9pe4","1536","864","de","HL06IN19","null","","","","learningBlock1","","","","That was a wug.","null","","","","",""
"","html-keyboard-response","162","384933","0.0-6.0-2.51","FL","td2t8o9pe4","1536","864","de","HL06IN19","null","","","","learningBlock1","","","","<div style=""font-size:60px;""> </div>","null","FL","learning/Slide52.JPG","That was a wug.","",""
"","image-keyboard-response","163","385122","0.0-6.0-0.52","FL","td2t8o9pe4","1536","864","de","HL06IN19","null","","","","","","","","learning/Slide53.JPG","null","","","","",""
"","html-keyboard-response","164","386307","0.0-6.0-1.52","FL","td2t8o9pe4","1536","864","de","HL06IN19","null","","","","learningBlock1","","","","That was a tob.","null","","","","",""
"","html-keyboard-response","165","387310","0.0-6.0-2.52","FL","td2t8o9pe4","1536","864","de","HL06IN19","null","","","","learningBlock1","","","","<div style=""font-size:60px;""> </div>","null","FL","learning/Slide53.JPG","That was a tob.","",""
"","image-keyboard-response","166","387501","0.0-6.0-0.53","FL","td2t8o9pe4","1536","864","de","HL06IN19","null","","","","","","","","learning/Slide54.JPG","null","","","","",""
"","html-keyboard-response","167","388685","0.0-6.0-1.53","FL","td2t8o9pe4","1536","864","de","HL06IN19","null","","","","learningBlock1","","","","That was a dep.","null","","","","",""
"","html-keyboard-response","168","389689","0.0-6.0-2.53","FL","td2t8o9pe4","1536","864","de","HL06IN19","null","","","","learningBlock1","","","","<div style=""font-size:60px;""> </div>","null","FL","learning/Slide54.JPG","That was a dep.","",""
"","image-keyboard-response","169","389880","0.0-6.0-0.54","FL","td2t8o9pe4","1536","864","de","HL06IN19","null","","","","","","","","learning/Slide55.JPG","null","","","","",""
"","html-keyboard-response","170","391044","0.0-6.0-1.54","FL","td2t8o9pe4","1536","864","de","HL06IN19","null","","","","learningBlock1","","","","That was a bim.","null","","","","",""
"","html-keyboard-response","171","392045","0.0-6.0-2.54","FL","td2t8o9pe4","1536","864","de","HL06IN19","null","","","","learningBlock1","","","","<div style=""font-size:60px;""> </div>","null","FL","learning/Slide55.JPG","That was a bim.","",""
"","image-keyboard-response","172","392238","0.0-6.0-0.55","FL","td2t8o9pe4","1536","864","de","HL06IN19","null","","","","","","","","learning/Slide56.JPG","null","","","","",""
"","html-keyboard-response","173","393411","0.0-6.0-1.55","FL","td2t8o9pe4","1536","864","de","HL06IN19","null","","","","learningBlock1","","","","That was a tob.","null","","","","",""
"","html-keyboard-response","174","394418","0.0-6.0-2.55","FL","td2t8o9pe4","1536","864","de","HL06IN19","null","","","","learningBlock1","","","","<div style=""font-size:60px;""> </div>","null","FL","learning/Slide56.JPG","That was a tob.","",""
"","image-keyboard-response","175","394605","0.0-6.0-0.56","FL","td2t8o9pe4","1536","864","de","HL06IN19","null","","","","","","","","learning/Slide57.JPG","null","","","","",""
"","html-keyboard-response","176","395779","0.0-6.0-1.56","FL","td2t8o9pe4","1536","864","de","HL06IN19","null","","","","learningBlock1","","","","That was a dep.","null","","","","",""
"","html-keyboard-response","177","396782","0.0-6.0-2.56","FL","td2t8o9pe4","1536","864","de","HL06IN19","null","","","","learningBlock1","","","","<div style=""font-size:60px;""> </div>","null","FL","learning/Slide57.JPG","That was a dep.","",""
"","image-keyboard-response","178","396963","0.0-6.0-0.57","FL","td2t8o9pe4","1536","864","de","HL06IN19","null","","","","","","","","learning/Slide58.JPG","null","","","","",""
"","html-keyboard-response","179","398147","0.0-6.0-1.57","FL","td2t8o9pe4","1536","864","de","HL06IN19","null","","","","learningBlock1","","","","That was a wug.","null","","","","",""
"","html-keyboard-response","180","399149","0.0-6.0-2.57","FL","td2t8o9pe4","1536","864","de","HL06IN19","null","","","","learningBlock1","","","","<div style=""font-size:60px;""> </div>","null","FL","learning/Slide58.JPG","That was a wug.","",""
"","image-keyboard-response","181","399343","0.0-6.0-0.58","FL","td2t8o9pe4","1536","864","de","HL06IN19","null","","","","","","","","learning/Slide59.JPG","null","","","","",""
"","html-keyboard-response","182","400515","0.0-6.0-1.58","FL","td2t8o9pe4","1536","864","de","HL06IN19","null","","","","learningBlock1","","","","That was a dep.","null","","","","",""
"","html-keyboard-response","183","401519","0.0-6.0-2.58","FL","td2t8o9pe4","1536","864","de","HL06IN19","null","","","","learningBlock1","","","","<div style=""font-size:60px;""> </div>","null","FL","learning/Slide59.JPG","That was a dep.","",""
"","image-keyboard-response","184","401710","0.0-6.0-0.59","FL","td2t8o9pe4","1536","864","de","HL06IN19","null","","","","","","","","learning/Slide60.JPG","null","","","","",""
"","html-keyboard-response","185","402872","0.0-6.0-1.59","FL","td2t8o9pe4","1536","864","de","HL06IN19","null","","","","learningBlock1","","","","That was a wug.","null","","","","",""
"","html-keyboard-response","186","403887","0.0-6.0-2.59","FL","td2t8o9pe4","1536","864","de","HL06IN19","null","","","","learningBlock1","","","","<div style=""font-size:60px;""> </div>","null","FL","learning/Slide60.JPG","That was a wug.","",""
"","image-keyboard-response","187","404066","0.0-6.0-0.60","FL","td2t8o9pe4","1536","864","de","HL06IN19","null","","","","","","","","learning/Slide61.JPG","null","","","","",""
"","html-keyboard-response","188","405240","0.0-6.0-1.60","FL","td2t8o9pe4","1536","864","de","HL06IN19","null","","","","learningBlock1","","","","That was a bim.","null","","","","",""
"","html-keyboard-response","189","406243","0.0-6.0-2.60","FL","td2t8o9pe4","1536","864","de","HL06IN19","null","","","","learningBlock1","","","","<div style=""font-size:60px;""> </div>","null","FL","learning/Slide61.JPG","That was a bim.","",""
"","image-keyboard-response","190","406424","0.0-6.0-0.61","FL","td2t8o9pe4","1536","864","de","HL06IN19","null","","","","","","","","learning/Slide62.JPG","null","","","","",""
"","html-keyboard-response","191","407587","0.0-6.0-1.61","FL","td2t8o9pe4","1536","864","de","HL06IN19","null","","","","learningBlock1","","","","That was a dep.","null","","","","",""
"","html-keyboard-response","192","408589","0.0-6.0-2.61","FL","td2t8o9pe4","1536","864","de","HL06IN19","null","","","","learningBlock1","","","","<div style=""font-size:60px;""> </div>","null","FL","learning/Slide62.JPG","That was a dep.","",""
"","image-keyboard-response","193","408781","0.0-6.0-0.62","FL","td2t8o9pe4","1536","864","de","HL06IN19","null","","","","","","","","learning/Slide63.JPG","null","","","","",""
"","html-keyboard-response","194","409966","0.0-6.0-1.62","FL","td2t8o9pe4","1536","864","de","HL06IN19","null","","","","learningBlock1","","","","That was a bim.","null","","","","",""
"","html-keyboard-response","195","410968","0.0-6.0-2.62","FL","td2t8o9pe4","1536","864","de","HL06IN19","null","","","","learningBlock1","","","","<div style=""font-size:60px;""> </div>","null","FL","learning/Slide63.JPG","That was a bim.","",""
"","image-keyboard-response","196","411160","0.0-6.0-0.63","FL","td2t8o9pe4","1536","864","de","HL06IN19","null","","","","","","","","learning/Slide64.JPG","null","","","","",""
"","html-keyboard-response","197","412322","0.0-6.0-1.63","FL","td2t8o9pe4","1536","864","de","HL06IN19","null","","","","learningBlock1","","","","That was a tob.","null","","","","",""
"","html-keyboard-response","198","413337","0.0-6.0-2.63","FL","td2t8o9pe4","1536","864","de","HL06IN19","null","","","","learningBlock1","","","","<div style=""font-size:60px;""> </div>","null","FL","learning/Slide64.JPG","That was a tob.","",""
"","image-keyboard-response","199","413528","0.0-6.0-0.64","FL","td2t8o9pe4","1536","864","de","HL06IN19","null","","","","","","","","learning/Slide65.JPG","null","","","","",""
"","html-keyboard-response","200","414701","0.0-6.0-1.64","FL","td2t8o9pe4","1536","864","de","HL06IN19","null","","","","learningBlock1","","","","That was a wug.","null","","","","",""
"","html-keyboard-response","201","415704","0.0-6.0-2.64","FL","td2t8o9pe4","1536","864","de","HL06IN19","null","","","","learningBlock1","","","","<div style=""font-size:60px;""> </div>","null","FL","learning/Slide65.JPG","That was a wug.","",""
"","image-keyboard-response","202","415881","0.0-6.0-0.65","FL","td2t8o9pe4","1536","864","de","HL06IN19","null","","","","","","","","learning/Slide66.JPG","null","","","","",""
"","html-keyboard-response","203","417038","0.0-6.0-1.65","FL","td2t8o9pe4","1536","864","de","HL06IN19","null","","","","learningBlock1","","","","That was a dep.","null","","","","",""
"","html-keyboard-response","204","418041","0.0-6.0-2.65","FL","td2t8o9pe4","1536","864","de","HL06IN19","null","","","","learningBlock1","","","","<div style=""font-size:60px;""> </div>","null","FL","learning/Slide66.JPG","That was a dep.","",""
"","image-keyboard-response","205","418232","0.0-6.0-0.66","FL","td2t8o9pe4","1536","864","de","HL06IN19","null","","","","","","","","learning/Slide67.JPG","null","","","","",""
"","html-keyboard-response","206","419412","0.0-6.0-1.66","FL","td2t8o9pe4","1536","864","de","HL06IN19","null","","","","learningBlock1","","","","That was a tob.","null","","","","",""
"","html-keyboard-response","207","420430","0.0-6.0-2.66","FL","td2t8o9pe4","1536","864","de","HL06IN19","null","","","","learningBlock1","","","","<div style=""font-size:60px;""> </div>","null","FL","learning/Slide67.JPG","That was a tob.","",""
"","image-keyboard-response","208","420610","0.0-6.0-0.67","FL","td2t8o9pe4","1536","864","de","HL06IN19","null","","","","","","","","learning/Slide68.JPG","null","","","","",""
"","html-keyboard-response","209","421784","0.0-6.0-1.67","FL","td2t8o9pe4","1536","864","de","HL06IN19","null","","","","learningBlock1","","","","That was a wug.","null","","","","",""
"","html-keyboard-response","210","422797","0.0-6.0-2.67","FL","td2t8o9pe4","1536","864","de","HL06IN19","null","","","","learningBlock1","","","","<div style=""font-size:60px;""> </div>","null","FL","learning/Slide68.JPG","That was a wug.","",""
"","image-keyboard-response","211","422989","0.0-6.0-0.68","FL","td2t8o9pe4","1536","864","de","HL06IN19","null","","","","","","","","learning/Slide69.JPG","null","","","","",""
"","html-keyboard-response","212","424162","0.0-6.0-1.68","FL","td2t8o9pe4","1536","864","de","HL06IN19","null","","","","learningBlock1","","","","That was a tob.","null","","","","",""
"","html-keyboard-response","213","425176","0.0-6.0-2.68","FL","td2t8o9pe4","1536","864","de","HL06IN19","null","","","","learningBlock1","","","","<div style=""font-size:60px;""> </div>","null","FL","learning/Slide69.JPG","That was a tob.","",""
"","image-keyboard-response","214","425368","0.0-6.0-0.69","FL","td2t8o9pe4","1536","864","de","HL06IN19","null","","","","","","","","learning/Slide70.JPG","null","","","","",""
"","html-keyboard-response","215","426532","0.0-6.0-1.69","FL","td2t8o9pe4","1536","864","de","HL06IN19","null","","","","learningBlock1","","","","That was a dep.","null","","","","",""
"","html-keyboard-response","216","427544","0.0-6.0-2.69","FL","td2t8o9pe4","1536","864","de","HL06IN19","null","","","","learningBlock1","","","","<div style=""font-size:60px;""> </div>","null","FL","learning/Slide70.JPG","That was a dep.","",""
"","image-keyboard-response","217","427735","0.0-6.0-0.70","FL","td2t8o9pe4","1536","864","de","HL06IN19","null","","","","","","","","learning/Slide71.JPG","null","","","","",""
"","html-keyboard-response","218","428920","0.0-6.0-1.70","FL","td2t8o9pe4","1536","864","de","HL06IN19","null","","","","learningBlock1","","","","That was a wug.","null","","","","",""
"","html-keyboard-response","219","429933","0.0-6.0-2.70","FL","td2t8o9pe4","1536","864","de","HL06IN19","null","","","","learningBlock1","","","","<div style=""font-size:60px;""> </div>","null","FL","learning/Slide71.JPG","That was a wug.","",""
"","image-keyboard-response","220","430124","0.0-6.0-0.71","FL","td2t8o9pe4","1536","864","de","HL06IN19","null","","","","","","","","learning/Slide72.JPG","null","","","","",""
"","html-keyboard-response","221","431288","0.0-6.0-1.71","FL","td2t8o9pe4","1536","864","de","HL06IN19","null","","","","learningBlock1","","","","That was a bim.","null","","","","",""
"","html-keyboard-response","222","432292","0.0-6.0-2.71","FL","td2t8o9pe4","1536","864","de","HL06IN19","null","","","","learningBlock1","","","","<div style=""font-size:60px;""> </div>","null","FL","learning/Slide72.JPG","That was a bim.","",""
"","image-keyboard-response","223","432482","0.0-6.0-0.72","FL","td2t8o9pe4","1536","864","de","HL06IN19","null","","","","","","","","learning/Slide73.JPG","null","","","","",""
"","html-keyboard-response","224","433666","0.0-6.0-1.72","FL","td2t8o9pe4","1536","864","de","HL06IN19","null","","","","learningBlock1","","","","That was a wug.","null","","","","",""
"","html-keyboard-response","225","434670","0.0-6.0-2.72","FL","td2t8o9pe4","1536","864","de","HL06IN19","null","","","","learningBlock1","","","","<div style=""font-size:60px;""> </div>","null","FL","learning/Slide73.JPG","That was a wug.","",""
"","image-keyboard-response","226","434861","0.0-6.0-0.73","FL","td2t8o9pe4","1536","864","de","HL06IN19","null","","","","","","","","learning/Slide74.JPG","null","","","","",""
"","html-keyboard-response","227","436034","0.0-6.0-1.73","FL","td2t8o9pe4","1536","864","de","HL06IN19","null","","","","learningBlock1","","","","That was a dep.","null","","","","",""
"","html-keyboard-response","228","437048","0.0-6.0-2.73","FL","td2t8o9pe4","1536","864","de","HL06IN19","null","","","","learningBlock1","","","","<div style=""font-size:60px;""> </div>","null","FL","learning/Slide74.JPG","That was a dep.","",""
"","image-keyboard-response","229","437240","0.0-6.0-0.74","FL","td2t8o9pe4","1536","864","de","HL06IN19","null","","","","","","","","learning/Slide75.JPG","null","","","","",""
"","html-keyboard-response","230","438424","0.0-6.0-1.74","FL","td2t8o9pe4","1536","864","de","HL06IN19","null","","","","learningBlock1","","","","That was a tob.","null","","","","",""
"","html-keyboard-response","231","439437","0.0-6.0-2.74","FL","td2t8o9pe4","1536","864","de","HL06IN19","null","","","","learningBlock1","","","","<div style=""font-size:60px;""> </div>","null","FL","learning/Slide75.JPG","That was a tob.","",""
"","image-keyboard-response","232","439618","0.0-6.0-0.75","FL","td2t8o9pe4","1536","864","de","HL06IN19","null","","","","","","","","learning/Slide76.JPG","null","","","","",""
"","html-keyboard-response","233","440802","0.0-6.0-1.75","FL","td2t8o9pe4","1536","864","de","HL06IN19","null","","","","learningBlock1","","","","That was a bim.","null","","","","",""
"","html-keyboard-response","234","441806","0.0-6.0-2.75","FL","td2t8o9pe4","1536","864","de","HL06IN19","null","","","","learningBlock1","","","","<div style=""font-size:60px;""> </div>","null","FL","learning/Slide76.JPG","That was a bim.","",""
"","image-keyboard-response","235","441986","0.0-6.0-0.76","FL","td2t8o9pe4","1536","864","de","HL06IN19","null","","","","","","","","learning/Slide77.JPG","null","","","","",""
"","html-keyboard-response","236","443170","0.0-6.0-1.76","FL","td2t8o9pe4","1536","864","de","HL06IN19","null","","","","learningBlock1","","","","That was a tob.","null","","","","",""
"","html-keyboard-response","237","444184","0.0-6.0-2.76","FL","td2t8o9pe4","1536","864","de","HL06IN19","null","","","","learningBlock1","","","","<div style=""font-size:60px;""> </div>","null","FL","learning/Slide77.JPG","That was a tob.","",""
"","image-keyboard-response","238","444376","0.0-6.0-0.77","FL","td2t8o9pe4","1536","864","de","HL06IN19","null","","","","","","","","learning/Slide78.JPG","null","","","","",""
"","html-keyboard-response","239","445550","0.0-6.0-1.77","FL","td2t8o9pe4","1536","864","de","HL06IN19","null","","","","learningBlock1","","","","That was a wug.","null","","","","",""
"","html-keyboard-response","240","446552","0.0-6.0-2.77","FL","td2t8o9pe4","1536","864","de","HL06IN19","null","","","","learningBlock1","","","","<div style=""font-size:60px;""> </div>","null","FL","learning/Slide78.JPG","That was a wug.","",""
"","image-keyboard-response","241","446731","0.0-6.0-0.78","FL","td2t8o9pe4","1536","864","de","HL06IN19","null","","","","","","","","learning/Slide79.JPG","null","","","","",""
"","html-keyboard-response","242","447885","0.0-6.0-1.78","FL","td2t8o9pe4","1536","864","de","HL06IN19","null","","","","learningBlock1","","","","That was a bim.","null","","","","",""
"","html-keyboard-response","243","448887","0.0-6.0-2.78","FL","td2t8o9pe4","1536","864","de","HL06IN19","null","","","","learningBlock1","","","","<div style=""font-size:60px;""> </div>","null","FL","learning/Slide79.JPG","That was a bim.","",""
"","image-keyboard-response","244","449075","0.0-6.0-0.79","FL","td2t8o9pe4","1536","864","de","HL06IN19","null","","","","","","","","learning/Slide80.JPG","null","","","","",""
"","html-keyboard-response","245","450232","0.0-6.0-1.79","FL","td2t8o9pe4","1536","864","de","HL06IN19","null","","","","learningBlock1","","","","That was a tob.","null","","","","",""
"","html-keyboard-response","246","451247","0.0-6.0-2.79","FL","td2t8o9pe4","1536","864","de","HL06IN19","null","","","","learningBlock1","","","","<div style=""font-size:60px;""> </div>","null","FL","learning/Slide80.JPG","That was a tob.","",""
"","instructions","247","453767","0.0-7.0","FL","td2t8o9pe4","1536","864","de","HL06IN19","NA","","","[{""page_index"":0,""viewing_time"":2519}]","instructions","","","","","","","","","",""
"","image-keyboard-response","248","453954","0.0-8.0-0.0","FL","td2t8o9pe4","1536","864","de","HL06IN19","null","","","","","","","","learning/Slide81.JPG","null","","","","",""
"","html-keyboard-response","249","455138","0.0-8.0-1.0","FL","td2t8o9pe4","1536","864","de","HL06IN19","null","","","","learningBlock2","","","","That was a wug.","null","","","","",""
"","html-keyboard-response","250","456142","0.0-8.0-2.0","FL","td2t8o9pe4","1536","864","de","HL06IN19","null","","","","learningBlock2","","","","<div style=""font-size:60px;""> </div>","null","FL","learning/Slide81.JPG","That was a wug.","",""
"","image-keyboard-response","251","456323","0.0-8.0-0.1","FL","td2t8o9pe4","1536","864","de","HL06IN19","null","","","","","","","","learning/Slide82.JPG","null","","","","",""
"","html-keyboard-response","252","457507","0.0-8.0-1.1","FL","td2t8o9pe4","1536","864","de","HL06IN19","null","","","","learningBlock2","","","","That was a bim.","null","","","","",""
"","html-keyboard-response","253","458509","0.0-8.0-2.1","FL","td2t8o9pe4","1536","864","de","HL06IN19","null","","","","learningBlock2","","","","<div style=""font-size:60px;""> </div>","null","FL","learning/Slide82.JPG","That was a bim.","",""
"","image-keyboard-response","254","458701","0.0-8.0-0.2","FL","td2t8o9pe4","1536","864","de","HL06IN19","null","","","","","","","","learning/Slide83.JPG","null","","","","",""
"","html-keyboard-response","255","459863","0.0-8.0-1.2","FL","td2t8o9pe4","1536","864","de","HL06IN19","null","","","","learningBlock2","","","","That was a wug.","null","","","","",""
"","html-keyboard-response","256","460867","0.0-8.0-2.2","FL","td2t8o9pe4","1536","864","de","HL06IN19","null","","","","learningBlock2","","","","<div style=""font-size:60px;""> </div>","null","FL","learning/Slide83.JPG","That was a wug.","",""
"","image-keyboard-response","257","461059","0.0-8.0-0.3","FL","td2t8o9pe4","1536","864","de","HL06IN19","null","","","","","","","","learning/Slide84.JPG","null","","","","",""
"","html-keyboard-response","258","462221","0.0-8.0-1.3","FL","td2t8o9pe4","1536","864","de","HL06IN19","null","","","","learningBlock2","","","","That was a dep.","null","","","","",""
"","html-keyboard-response","259","463235","0.0-8.0-2.3","FL","td2t8o9pe4","1536","864","de","HL06IN19","null","","","","learningBlock2","","","","<div style=""font-size:60px;""> </div>","null","FL","learning/Slide84.JPG","That was a dep.","",""
"","image-keyboard-response","260","463426","0.0-8.0-0.4","FL","td2t8o9pe4","1536","864","de","HL06IN19","null","","","","","","","","learning/Slide85.JPG","null","","","","",""
"","html-keyboard-response","261","464599","0.0-8.0-1.4","FL","td2t8o9pe4","1536","864","de","HL06IN19","null","","","","learningBlock2","","","","That was a bim.","null","","","","",""
"","html-keyboard-response","262","465613","0.0-8.0-2.4","FL","td2t8o9pe4","1536","864","de","HL06IN19","null","","","","learningBlock2","","","","<div style=""font-size:60px;""> </div>","null","FL","learning/Slide85.JPG","That was a bim.","",""
"","image-keyboard-response","263","465794","0.0-8.0-0.5","FL","td2t8o9pe4","1536","864","de","HL06IN19","null","","","","","","","","learning/Slide86.JPG","null","","","","",""
"","html-keyboard-response","264","466979","0.0-8.0-1.5","FL","td2t8o9pe4","1536","864","de","HL06IN19","null","","","","learningBlock2","","","","That was a tob.","null","","","","",""
"","html-keyboard-response","265","467992","0.0-8.0-2.5","FL","td2t8o9pe4","1536","864","de","HL06IN19","null","","","","learningBlock2","","","","<div style=""font-size:60px;""> </div>","null","FL","learning/Slide86.JPG","That was a tob.","",""
"","image-keyboard-response","266","468172","0.0-8.0-0.6","FL","td2t8o9pe4","1536","864","de","HL06IN19","null","","","","","","","","learning/Slide87.JPG","null","","","","",""
"","html-keyboard-response","267","469359","0.0-8.0-1.6","FL","td2t8o9pe4","1536","864","de","HL06IN19","null","","","","learningBlock2","","","","That was a wug.","null","","","","",""
"","html-keyboard-response","268","470372","0.0-8.0-2.6","FL","td2t8o9pe4","1536","864","de","HL06IN19","null","","","","learningBlock2","","","","<div style=""font-size:60px;""> </div>","null","FL","learning/Slide87.JPG","That was a wug.","",""
"","image-keyboard-response","269","470552","0.0-8.0-0.7","FL","td2t8o9pe4","1536","864","de","HL06IN19","null","","","","","","","","learning/Slide88.JPG","null","","","","",""
"","html-keyboard-response","270","471714","0.0-8.0-1.7","FL","td2t8o9pe4","1536","864","de","HL06IN19","null","","","","learningBlock2","","","","That was a tob.","null","","","","",""
"","html-keyboard-response","271","472729","0.0-8.0-2.7","FL","td2t8o9pe4","1536","864","de","HL06IN19","null","","","","learningBlock2","","","","<div style=""font-size:60px;""> </div>","null","FL","learning/Slide88.JPG","That was a tob.","",""
"","image-keyboard-response","272","472920","0.0-8.0-0.8","FL","td2t8o9pe4","1536","864","de","HL06IN19","null","","","","","","","","learning/Slide89.JPG","null","","","","",""
"","html-keyboard-response","273","474093","0.0-8.0-1.8","FL","td2t8o9pe4","1536","864","de","HL06IN19","null","","","","learningBlock2","","","","That was a bim.","null","","","","",""
"","html-keyboard-response","274","475097","0.0-8.0-2.8","FL","td2t8o9pe4","1536","864","de","HL06IN19","null","","","","learningBlock2","","","","<div style=""font-size:60px;""> </div>","null","FL","learning/Slide89.JPG","That was a bim.","",""
"","image-keyboard-response","275","475288","0.0-8.0-0.9","FL","td2t8o9pe4","1536","864","de","HL06IN19","null","","","","","","","","learning/Slide90.JPG","null","","","","",""
"","html-keyboard-response","276","476451","0.0-8.0-1.9","FL","td2t8o9pe4","1536","864","de","HL06IN19","null","","","","learningBlock2","","","","That was a dep.","null","","","","",""
"","html-keyboard-response","277","477464","0.0-8.0-2.9","FL","td2t8o9pe4","1536","864","de","HL06IN19","null","","","","learningBlock2","","","","<div style=""font-size:60px;""> </div>","null","FL","learning/Slide90.JPG","That was a dep.","",""
"","image-keyboard-response","278","477656","0.0-8.0-0.10","FL","td2t8o9pe4","1536","864","de","HL06IN19","null","","","","","","","","learning/Slide91.JPG","null","","","","",""
"","html-keyboard-response","279","478839","0.0-8.0-1.10","FL","td2t8o9pe4","1536","864","de","HL06IN19","null","","","","learningBlock2","","","","That was a wug.","null","","","","",""
"","html-keyboard-response","280","479843","0.0-8.0-2.10","FL","td2t8o9pe4","1536","864","de","HL06IN19","null","","","","learningBlock2","","","","<div style=""font-size:60px;""> </div>","null","FL","learning/Slide91.JPG","That was a wug.","",""
"","image-keyboard-response","281","480034","0.0-8.0-0.11","FL","td2t8o9pe4","1536","864","de","HL06IN19","null","","","","","","","","learning/Slide92.JPG","null","","","","",""
"","html-keyboard-response","282","481218","0.0-8.0-1.11","FL","td2t8o9pe4","1536","864","de","HL06IN19","null","","","","learningBlock2","","","","That was a tob.","null","","","","",""
"","html-keyboard-response","283","482232","0.0-8.0-2.11","FL","td2t8o9pe4","1536","864","de","HL06IN19","null","","","","learningBlock2","","","","<div style=""font-size:60px;""> </div>","null","FL","learning/Slide92.JPG","That was a tob.","",""
"","image-keyboard-response","284","482424","0.0-8.0-0.12","FL","td2t8o9pe4","1536","864","de","HL06IN19","null","","","","","","","","learning/Slide93.JPG","null","","","","",""
"","html-keyboard-response","285","483585","0.0-8.0-1.12","FL","td2t8o9pe4","1536","864","de","HL06IN19","null","","","","learningBlock2","","","","That was a bim.","null","","","","",""
"","html-keyboard-response","286","484588","0.0-8.0-2.12","FL","td2t8o9pe4","1536","864","de","HL06IN19","null","","","","learningBlock2","","","","<div style=""font-size:60px;""> </div>","null","FL","learning/Slide93.JPG","That was a bim.","",""
"","image-keyboard-response","287","484770","0.0-8.0-0.13","FL","td2t8o9pe4","1536","864","de","HL06IN19","null","","","","","","","","learning/Slide94.JPG","null","","","","",""
"","html-keyboard-response","288","485944","0.0-8.0-1.13","FL","td2t8o9pe4","1536","864","de","HL06IN19","null","","","","learningBlock2","","","","That was a tob.","null","","","","",""
"","html-keyboard-response","289","486958","0.0-8.0-2.13","FL","td2t8o9pe4","1536","864","de","HL06IN19","null","","","","learningBlock2","","","","<div style=""font-size:60px;""> </div>","null","FL","learning/Slide94.JPG","That was a tob.","",""
"","image-keyboard-response","290","487149","0.0-8.0-0.14","FL","td2t8o9pe4","1536","864","de","HL06IN19","null","","","","","","","","learning/Slide95.JPG","null","","","","",""
"","html-keyboard-response","291","488322","0.0-8.0-1.14","FL","td2t8o9pe4","1536","864","de","HL06IN19","null","","","","learningBlock2","","","","That was a wug.","null","","","","",""
"","html-keyboard-response","292","489326","0.0-8.0-2.14","FL","td2t8o9pe4","1536","864","de","HL06IN19","null","","","","learningBlock2","","","","<div style=""font-size:60px;""> </div>","null","FL","learning/Slide95.JPG","That was a wug.","",""
"","image-keyboard-response","293","489517","0.0-8.0-0.15","FL","td2t8o9pe4","1536","864","de","HL06IN19","null","","","","","","","","learning/Slide96.JPG","null","","","","",""
"","html-keyboard-response","294","490701","0.0-8.0-1.15","FL","td2t8o9pe4","1536","864","de","HL06IN19","null","","","","learningBlock2","","","","That was a tob.","null","","","","",""
"","html-keyboard-response","295","491715","0.0-8.0-2.15","FL","td2t8o9pe4","1536","864","de","HL06IN19","null","","","","learningBlock2","","","","<div style=""font-size:60px;""> </div>","null","FL","learning/Slide96.JPG","That was a tob.","",""
"","image-keyboard-response","296","491907","0.0-8.0-0.16","FL","td2t8o9pe4","1536","864","de","HL06IN19","null","","","","","","","","learning/Slide97.JPG","null","","","","",""
"","html-keyboard-response","297","493088","0.0-8.0-1.16","FL","td2t8o9pe4","1536","864","de","HL06IN19","null","","","","learningBlock2","","","","That was a dep.","null","","","","",""
"","html-keyboard-response","298","494093","0.0-8.0-2.16","FL","td2t8o9pe4","1536","864","de","HL06IN19","null","","","","learningBlock2","","","","<div style=""font-size:60px;""> </div>","null","FL","learning/Slide97.JPG","That was a dep.","",""
"","image-keyboard-response","299","494285","0.0-8.0-0.17","FL","td2t8o9pe4","1536","864","de","HL06IN19","null","","","","","","","","learning/Slide98.JPG","null","","","","",""
"","html-keyboard-response","300","495459","0.0-8.0-1.17","FL","td2t8o9pe4","1536","864","de","HL06IN19","null","","","","learningBlock2","","","","That was a bim.","null","","","","",""
"","html-keyboard-response","301","496472","0.0-8.0-2.17","FL","td2t8o9pe4","1536","864","de","HL06IN19","null","","","","learningBlock2","","","","<div style=""font-size:60px;""> </div>","null","FL","learning/Slide98.JPG","That was a bim.","",""
"","image-keyboard-response","302","496653","0.0-8.0-0.18","FL","td2t8o9pe4","1536","864","de","HL06IN19","null","","","","","","","","learning/Slide99.JPG","null","","","","",""
"","html-keyboard-response","303","497827","0.0-8.0-1.18","FL","td2t8o9pe4","1536","864","de","HL06IN19","null","","","","learningBlock2","","","","That was a dep.","null","","","","",""
"","html-keyboard-response","304","498828","0.0-8.0-2.18","FL","td2t8o9pe4","1536","864","de","HL06IN19","null","","","","learningBlock2","","","","<div style=""font-size:60px;""> </div>","null","FL","learning/Slide99.JPG","That was a dep.","",""
"","image-keyboard-response","305","499010","0.0-8.0-0.19","FL","td2t8o9pe4","1536","864","de","HL06IN19","null","","","","","","","","learning/Slide100.JPG","null","","","","",""
"","html-keyboard-response","306","500194","0.0-8.0-1.19","FL","td2t8o9pe4","1536","864","de","HL06IN19","null","","","","learningBlock2","","","","That was a bim.","null","","","","",""
"","html-keyboard-response","307","501208","0.0-8.0-2.19","FL","td2t8o9pe4","1536","864","de","HL06IN19","null","","","","learningBlock2","","","","<div style=""font-size:60px;""> </div>","null","FL","learning/Slide100.JPG","That was a bim.","",""
"","image-keyboard-response","308","501400","0.0-8.0-0.20","FL","td2t8o9pe4","1536","864","de","HL06IN19","null","","","","","","","","learning/Slide101.JPG","null","","","","",""
"","html-keyboard-response","309","502585","0.0-8.0-1.20","FL","td2t8o9pe4","1536","864","de","HL06IN19","null","","","","learningBlock2","","","","That was a tob.","null","","","","",""
"","html-keyboard-response","310","503596","0.0-8.0-2.20","FL","td2t8o9pe4","1536","864","de","HL06IN19","null","","","","learningBlock2","","","","<div style=""font-size:60px;""> </div>","null","FL","learning/Slide101.JPG","That was a tob.","",""
"","image-keyboard-response","311","503778","0.0-8.0-0.21","FL","td2t8o9pe4","1536","864","de","HL06IN19","null","","","","","","","","learning/Slide102.JPG","null","","","","",""
"","html-keyboard-response","312","504956","0.0-8.0-1.21","FL","td2t8o9pe4","1536","864","de","HL06IN19","null","","","","learningBlock2","","","","That was a bim.","null","","","","",""
"","html-keyboard-response","313","505976","0.0-8.0-2.21","FL","td2t8o9pe4","1536","864","de","HL06IN19","null","","","","learningBlock2","","","","<div style=""font-size:60px;""> </div>","null","FL","learning/Slide102.JPG","That was a bim.","",""
"","image-keyboard-response","314","506163","0.0-8.0-0.22","FL","td2t8o9pe4","1536","864","de","HL06IN19","null","","","","","","","","learning/Slide103.JPG","null","","","","",""
"","html-keyboard-response","315","507336","0.0-8.0-1.22","FL","td2t8o9pe4","1536","864","de","HL06IN19","null","","","","learningBlock2","","","","That was a dep.","null","","","","",""
"","html-keyboard-response","316","508344","0.0-8.0-2.22","FL","td2t8o9pe4","1536","864","de","HL06IN19","null","","","","learningBlock2","","","","<div style=""font-size:60px;""> </div>","null","FL","learning/Slide103.JPG","That was a dep.","",""
"","image-keyboard-response","317","508535","0.0-8.0-0.23","FL","td2t8o9pe4","1536","864","de","HL06IN19","null","","","","","","","","learning/Slide104.JPG","null","","","","",""
"","html-keyboard-response","318","509720","0.0-8.0-1.23","FL","td2t8o9pe4","1536","864","de","HL06IN19","null","","","","learningBlock2","","","","That was a tob.","null","","","","",""
"","html-keyboard-response","319","510724","0.0-8.0-2.23","FL","td2t8o9pe4","1536","864","de","HL06IN19","null","","","","learningBlock2","","","","<div style=""font-size:60px;""> </div>","null","FL","learning/Slide104.JPG","That was a tob.","",""
"","image-keyboard-response","320","510900","0.0-8.0-0.24","FL","td2t8o9pe4","1536","864","de","HL06IN19","null","","","","","","","","learning/Slide105.JPG","null","","","","",""
"","html-keyboard-response","321","512067","0.0-8.0-1.24","FL","td2t8o9pe4","1536","864","de","HL06IN19","null","","","","learningBlock2","","","","That was a dep.","null","","","","",""
"","html-keyboard-response","322","513080","0.0-8.0-2.24","FL","td2t8o9pe4","1536","864","de","HL06IN19","null","","","","learningBlock2","","","","<div style=""font-size:60px;""> </div>","null","FL","learning/Slide105.JPG","That was a dep.","",""
"","image-keyboard-response","323","513261","0.0-8.0-0.25","FL","td2t8o9pe4","1536","864","de","HL06IN19","null","","","","","","","","learning/Slide106.JPG","null","","","","",""
"","html-keyboard-response","324","514425","0.0-8.0-1.25","FL","td2t8o9pe4","1536","864","de","HL06IN19","null","","","","learningBlock2","","","","That was a wug.","null","","","","",""
"","html-keyboard-response","325","515426","0.0-8.0-2.25","FL","td2t8o9pe4","1536","864","de","HL06IN19","null","","","","learningBlock2","","","","<div style=""font-size:60px;""> </div>","null","FL","learning/Slide106.JPG","That was a wug.","",""
"","image-keyboard-response","326","515618","0.0-8.0-0.26","FL","td2t8o9pe4","1536","864","de","HL06IN19","null","","","","","","","","learning/Slide107.JPG","null","","","","",""
"","html-keyboard-response","327","516792","0.0-8.0-1.26","FL","td2t8o9pe4","1536","864","de","HL06IN19","null","","","","learningBlock2","","","","That was a bim.","null","","","","",""
"","html-keyboard-response","328","517806","0.0-8.0-2.26","FL","td2t8o9pe4","1536","864","de","HL06IN19","null","","","","learningBlock2","","","","<div style=""font-size:60px;""> </div>","null","FL","learning/Slide107.JPG","That was a bim.","",""
"","image-keyboard-response","329","517997","0.0-8.0-0.27","FL","td2t8o9pe4","1536","864","de","HL06IN19","null","","","","","","","","learning/Slide108.JPG","null","","","","",""
"","html-keyboard-response","330","519170","0.0-8.0-1.27","FL","td2t8o9pe4","1536","864","de","HL06IN19","null","","","","learningBlock2","","","","That was a dep.","null","","","","",""
"","html-keyboard-response","331","520183","0.0-8.0-2.27","FL","td2t8o9pe4","1536","864","de","HL06IN19","null","","","","learningBlock2","","","","<div style=""font-size:60px;""> </div>","null","FL","learning/Slide108.JPG","That was a dep.","",""
"","image-keyboard-response","332","520365","0.0-8.0-0.28","FL","td2t8o9pe4","1536","864","de","HL06IN19","null","","","","","","","","learning/Slide109.JPG","null","","","","",""
"","html-keyboard-response","333","521539","0.0-8.0-1.28","FL","td2t8o9pe4","1536","864","de","HL06IN19","null","","","","learningBlock2","","","","That was a wug.","null","","","","",""
"","html-keyboard-response","334","522552","0.0-8.0-2.28","FL","td2t8o9pe4","1536","864","de","HL06IN19","null","","","","learningBlock2","","","","<div style=""font-size:60px;""> </div>","null","FL","learning/Slide109.JPG","That was a wug.","",""
"","image-keyboard-response","335","522733","0.0-8.0-0.29","FL","td2t8o9pe4","1536","864","de","HL06IN19","null","","","","","","","","learning/Slide110.JPG","null","","","","",""
"","html-keyboard-response","336","523906","0.0-8.0-1.29","FL","td2t8o9pe4","1536","864","de","HL06IN19","null","","","","learningBlock2","","","","That was a bim.","null","","","","",""
"","html-keyboard-response","337","524910","0.0-8.0-2.29","FL","td2t8o9pe4","1536","864","de","HL06IN19","null","","","","learningBlock2","","","","<div style=""font-size:60px;""> </div>","null","FL","learning/Slide110.JPG","That was a bim.","",""
"","image-keyboard-response","338","525090","0.0-8.0-0.30","FL","td2t8o9pe4","1536","864","de","HL06IN19","null","","","","","","","","learning/Slide111.JPG","null","","","","",""
"","html-keyboard-response","339","526264","0.0-8.0-1.30","FL","td2t8o9pe4","1536","864","de","HL06IN19","null","","","","learningBlock2","","","","That was a tob.","null","","","","",""
"","html-keyboard-response","340","527277","0.0-8.0-2.30","FL","td2t8o9pe4","1536","864","de","HL06IN19","null","","","","learningBlock2","","","","<div style=""font-size:60px;""> </div>","null","FL","learning/Slide111.JPG","That was a tob.","",""
"","image-keyboard-response","341","527458","0.0-8.0-0.31","FL","td2t8o9pe4","1536","864","de","HL06IN19","null","","","","","","","","learning/Slide112.JPG","null","","","","",""
"","html-keyboard-response","342","528632","0.0-8.0-1.31","FL","td2t8o9pe4","1536","864","de","HL06IN19","null","","","","learningBlock2","","","","That was a wug.","null","","","","",""
"","html-keyboard-response","343","529645","0.0-8.0-2.31","FL","td2t8o9pe4","1536","864","de","HL06IN19","null","","","","learningBlock2","","","","<div style=""font-size:60px;""> </div>","null","FL","learning/Slide112.JPG","That was a wug.","",""
"","image-keyboard-response","344","529838","0.0-8.0-0.32","FL","td2t8o9pe4","1536","864","de","HL06IN19","null","","","","","","","","learning/Slide113.JPG","null","","","","",""
"","html-keyboard-response","345","531010","0.0-8.0-1.32","FL","td2t8o9pe4","1536","864","de","HL06IN19","null","","","","learningBlock2","","","","That was a tob.","null","","","","",""
"","html-keyboard-response","346","532013","0.0-8.0-2.32","FL","td2t8o9pe4","1536","864","de","HL06IN19","null","","","","learningBlock2","","","","<div style=""font-size:60px;""> </div>","null","FL","learning/Slide113.JPG","That was a tob.","",""
"","image-keyboard-response","347","532205","0.0-8.0-0.33","FL","td2t8o9pe4","1536","864","de","HL06IN19","null","","","","","","","","learning/Slide114.JPG","null","","","","",""
"","html-keyboard-response","348","533389","0.0-8.0-1.33","FL","td2t8o9pe4","1536","864","de","HL06IN19","null","","","","learningBlock2","","","","That was a wug.","null","","","","",""
"","html-keyboard-response","349","534402","0.0-8.0-2.33","FL","td2t8o9pe4","1536","864","de","HL06IN19","null","","","","learningBlock2","","","","<div style=""font-size:60px;""> </div>","null","FL","learning/Slide114.JPG","That was a wug.","",""
"","image-keyboard-response","350","534583","0.0-8.0-0.34","FL","td2t8o9pe4","1536","864","de","HL06IN19","null","","","","","","","","learning/Slide115.JPG","null","","","","",""
"","html-keyboard-response","351","535746","0.0-8.0-1.34","FL","td2t8o9pe4","1536","864","de","HL06IN19","null","","","","learningBlock2","","","","That was a bim.","null","","","","",""
"","html-keyboard-response","352","536759","0.0-8.0-2.34","FL","td2t8o9pe4","1536","864","de","HL06IN19","null","","","","learningBlock2","","","","<div style=""font-size:60px;""> </div>","null","FL","learning/Slide115.JPG","That was a bim.","",""
"","image-keyboard-response","353","536951","0.0-8.0-0.35","FL","td2t8o9pe4","1536","864","de","HL06IN19","null","","","","","","","","learning/Slide116.JPG","null","","","","",""
"","html-keyboard-response","354","538125","0.0-8.0-1.35","FL","td2t8o9pe4","1536","864","de","HL06IN19","null","","","","learningBlock2","","","","That was a dep.","null","","","","",""
"","html-keyboard-response","355","539127","0.0-8.0-2.35","FL","td2t8o9pe4","1536","864","de","HL06IN19","null","","","","learningBlock2","","","","<div style=""font-size:60px;""> </div>","null","FL","learning/Slide116.JPG","That was a dep.","",""
"","image-keyboard-response","356","539319","0.0-8.0-0.36","FL","td2t8o9pe4","1536","864","de","HL06IN19","null","","","","","","","","learning/Slide117.JPG","null","","","","",""
"","html-keyboard-response","357","540493","0.0-8.0-1.36","FL","td2t8o9pe4","1536","864","de","HL06IN19","null","","","","learningBlock2","","","","That was a tob.","null","","","","",""
"","html-keyboard-response","358","541496","0.0-8.0-2.36","FL","td2t8o9pe4","1536","864","de","HL06IN19","null","","","","learningBlock2","","","","<div style=""font-size:60px;""> </div>","null","FL","learning/Slide117.JPG","That was a tob.","",""
"","image-keyboard-response","359","541688","0.0-8.0-0.37","FL","td2t8o9pe4","1536","864","de","HL06IN19","null","","","","","","","","learning/Slide118.JPG","null","","","","",""
"","html-keyboard-response","360","542861","0.0-8.0-1.37","FL","td2t8o9pe4","1536","864","de","HL06IN19","null","","","","learningBlock2","","","","That was a dep.","null","","","","",""
"","html-keyboard-response","361","543864","0.0-8.0-2.37","FL","td2t8o9pe4","1536","864","de","HL06IN19","null","","","","learningBlock2","","","","<div style=""font-size:60px;""> </div>","null","FL","learning/Slide118.JPG","That was a dep.","",""
"","image-keyboard-response","362","544044","0.0-8.0-0.38","FL","td2t8o9pe4","1536","864","de","HL06IN19","null","","","","","","","","learning/Slide119.JPG","null","","","","",""
"","html-keyboard-response","363","545218","0.0-8.0-1.38","FL","td2t8o9pe4","1536","864","de","HL06IN19","null","","","","learningBlock2","","","","That was a wug.","null","","","","",""
"","html-keyboard-response","364","546221","0.0-8.0-2.38","FL","td2t8o9pe4","1536","864","de","HL06IN19","null","","","","learningBlock2","","","","<div style=""font-size:60px;""> </div>","null","FL","learning/Slide119.JPG","That was a wug.","",""
"","image-keyboard-response","365","546413","0.0-8.0-0.39","FL","td2t8o9pe4","1536","864","de","HL06IN19","null","","","","","","","","learning/Slide120.JPG","null","","","","",""
"","html-keyboard-response","366","547587","0.0-8.0-1.39","FL","td2t8o9pe4","1536","864","de","HL06IN19","null","","","","learningBlock2","","","","That was a dep.","null","","","","",""
"","html-keyboard-response","367","548600","0.0-8.0-2.39","FL","td2t8o9pe4","1536","864","de","HL06IN19","null","","","","learningBlock2","","","","<div style=""font-size:60px;""> </div>","null","FL","learning/Slide120.JPG","That was a dep.","",""
"","image-keyboard-response","368","548792","0.0-8.0-0.40","FL","td2t8o9pe4","1536","864","de","HL06IN19","null","","","","","","","","learning/Slide121.JPG","null","","","","",""
"","html-keyboard-response","369","549975","0.0-8.0-1.40","FL","td2t8o9pe4","1536","864","de","HL06IN19","null","","","","learningBlock2","","","","That was a bim.","null","","","","",""
"","html-keyboard-response","370","550978","0.0-8.0-2.40","FL","td2t8o9pe4","1536","864","de","HL06IN19","null","","","","learningBlock2","","","","<div style=""font-size:60px;""> </div>","null","FL","learning/Slide121.JPG","That was a bim.","",""
"","image-keyboard-response","371","551159","0.0-8.0-0.41","FL","td2t8o9pe4","1536","864","de","HL06IN19","null","","","","","","","","learning/Slide122.JPG","null","","","","",""
"","html-keyboard-response","372","552344","0.0-8.0-1.41","FL","td2t8o9pe4","1536","864","de","HL06IN19","null","","","","learningBlock2","","","","That was a wug.","null","","","","",""
"","html-keyboard-response","373","553352","0.0-8.0-2.41","FL","td2t8o9pe4","1536","864","de","HL06IN19","null","","","","learningBlock2","","","","<div style=""font-size:60px;""> </div>","null","FL","learning/Slide122.JPG","That was a wug.","",""
"","image-keyboard-response","374","553538","0.0-8.0-0.42","FL","td2t8o9pe4","1536","864","de","HL06IN19","null","","","","","","","","learning/Slide123.JPG","null","","","","",""
"","html-keyboard-response","375","554722","0.0-8.0-1.42","FL","td2t8o9pe4","1536","864","de","HL06IN19","null","","","","learningBlock2","","","","That was a bim.","null","","","","",""
"","html-keyboard-response","376","555730","0.0-8.0-2.42","FL","td2t8o9pe4","1536","864","de","HL06IN19","null","","","","learningBlock2","","","","<div style=""font-size:60px;""> </div>","null","FL","learning/Slide123.JPG","That was a bim.","",""
"","image-keyboard-response","377","555917","0.0-8.0-0.43","FL","td2t8o9pe4","1536","864","de","HL06IN19","null","","","","","","","","learning/Slide124.JPG","null","","","","",""
"","html-keyboard-response","378","557101","0.0-8.0-1.43","FL","td2t8o9pe4","1536","864","de","HL06IN19","null","","","","learningBlock2","","","","That was a tob.","null","","","","",""
"","html-keyboard-response","379","558103","0.0-8.0-2.43","FL","td2t8o9pe4","1536","864","de","HL06IN19","null","","","","learningBlock2","","","","<div style=""font-size:60px;""> </div>","null","FL","learning/Slide124.JPG","That was a tob.","",""
"","image-keyboard-response","380","558295","0.0-8.0-0.44","FL","td2t8o9pe4","1536","864","de","HL06IN19","null","","","","","","","","learning/Slide125.JPG","null","","","","",""
"","html-keyboard-response","381","559469","0.0-8.0-1.44","FL","td2t8o9pe4","1536","864","de","HL06IN19","null","","","","learningBlock2","","","","That was a bim.","null","","","","",""
"","html-keyboard-response","382","560494","0.0-8.0-2.44","FL","td2t8o9pe4","1536","864","de","HL06IN19","null","","","","learningBlock2","","","","<div style=""font-size:60px;""> </div>","null","FL","learning/Slide125.JPG","That was a bim.","",""
"","image-keyboard-response","383","560672","0.0-8.0-0.45","FL","td2t8o9pe4","1536","864","de","HL06IN19","null","","","","","","","","learning/Slide126.JPG","null","","","","",""
"","html-keyboard-response","384","561826","0.0-8.0-1.45","FL","td2t8o9pe4","1536","864","de","HL06IN19","null","","","","learningBlock2","","","","That was a tob.","null","","","","",""
"","html-keyboard-response","385","562839","0.0-8.0-2.45","FL","td2t8o9pe4","1536","864","de","HL06IN19","null","","","","learningBlock2","","","","<div style=""font-size:60px;""> </div>","null","FL","learning/Slide126.JPG","That was a tob.","",""
"","image-keyboard-response","386","563021","0.0-8.0-0.46","FL","td2t8o9pe4","1536","864","de","HL06IN19","null","","","","","","","","learning/Slide127.JPG","null","","","","",""
"","html-keyboard-response","387","564194","0.0-8.0-1.46","FL","td2t8o9pe4","1536","864","de","HL06IN19","null","","","","learningBlock2","","","","That was a dep.","null","","","","",""
"","html-keyboard-response","388","565198","0.0-8.0-2.46","FL","td2t8o9pe4","1536","864","de","HL06IN19","null","","","","learningBlock2","","","","<div style=""font-size:60px;""> </div>","null","FL","learning/Slide127.JPG","That was a dep.","",""
"","image-keyboard-response","389","565378","0.0-8.0-0.47","FL","td2t8o9pe4","1536","864","de","HL06IN19","null","","","","","","","","learning/Slide128.JPG","null","","","","",""
"","html-keyboard-response","390","566552","0.0-8.0-1.47","FL","td2t8o9pe4","1536","864","de","HL06IN19","null","","","","learningBlock2","","","","That was a wug.","null","","","","",""
"","html-keyboard-response","391","567565","0.0-8.0-2.47","FL","td2t8o9pe4","1536","864","de","HL06IN19","null","","","","learningBlock2","","","","<div style=""font-size:60px;""> </div>","null","FL","learning/Slide128.JPG","That was a wug.","",""
"","image-keyboard-response","392","567757","0.0-8.0-0.48","FL","td2t8o9pe4","1536","864","de","HL06IN19","null","","","","","","","","learning/Slide129.JPG","null","","","","",""
"","html-keyboard-response","393","568940","0.0-8.0-1.48","FL","td2t8o9pe4","1536","864","de","HL06IN19","null","","","","learningBlock2","","","","That was a tob.","null","","","","",""
"","html-keyboard-response","394","569943","0.0-8.0-2.48","FL","td2t8o9pe4","1536","864","de","HL06IN19","null","","","","learningBlock2","","","","<div style=""font-size:60px;""> </div>","null","FL","learning/Slide129.JPG","That was a tob.","",""
"","image-keyboard-response","395","570125","0.0-8.0-0.49","FL","td2t8o9pe4","1536","864","de","HL06IN19","null","","","","","","","","learning/Slide130.JPG","null","","","","",""
"","html-keyboard-response","396","571298","0.0-8.0-1.49","FL","td2t8o9pe4","1536","864","de","HL06IN19","null","","","","learningBlock2","","","","That was a wug.","null","","","","",""
"","html-keyboard-response","397","572311","0.0-8.0-2.49","FL","td2t8o9pe4","1536","864","de","HL06IN19","null","","","","learningBlock2","","","","<div style=""font-size:60px;""> </div>","null","FL","learning/Slide130.JPG","That was a wug.","",""
"","image-keyboard-response","398","572503","0.0-8.0-0.50","FL","td2t8o9pe4","1536","864","de","HL06IN19","null","","","","","","","","learning/Slide131.JPG","null","","","","",""
"","html-keyboard-response","399","573687","0.0-8.0-1.50","FL","td2t8o9pe4","1536","864","de","HL06IN19","null","","","","learningBlock2","","","","That was a bim.","null","","","","",""
"","html-keyboard-response","400","574701","0.0-8.0-2.50","FL","td2t8o9pe4","1536","864","de","HL06IN19","null","","","","learningBlock2","","","","<div style=""font-size:60px;""> </div>","null","FL","learning/Slide131.JPG","That was a bim.","",""
"","image-keyboard-response","401","574893","0.0-8.0-0.51","FL","td2t8o9pe4","1536","864","de","HL06IN19","null","","","","","","","","learning/Slide132.JPG","null","","","","",""
"","html-keyboard-response","402","576077","0.0-8.0-1.51","FL","td2t8o9pe4","1536","864","de","HL06IN19","null","","","","learningBlock2","","","","That was a dep.","null","","","","",""
"","html-keyboard-response","403","577080","0.0-8.0-2.51","FL","td2t8o9pe4","1536","864","de","HL06IN19","null","","","","learningBlock2","","","","<div style=""font-size:60px;""> </div>","null","FL","learning/Slide132.JPG","That was a dep.","",""
"","image-keyboard-response","404","577261","0.0-8.0-0.52","FL","td2t8o9pe4","1536","864","de","HL06IN19","null","","","","","","","","learning/Slide133.JPG","null","","","","",""
"","html-keyboard-response","405","578434","0.0-8.0-1.52","FL","td2t8o9pe4","1536","864","de","HL06IN19","null","","","","learningBlock2","","","","That was a tob.","null","","","","",""
"","html-keyboard-response","406","579447","0.0-8.0-2.52","FL","td2t8o9pe4","1536","864","de","HL06IN19","null","","","","learningBlock2","","","","<div style=""font-size:60px;""> </div>","null","FL","learning/Slide133.JPG","That was a tob.","",""
"","image-keyboard-response","407","579639","0.0-8.0-0.53","FL","td2t8o9pe4","1536","864","de","HL06IN19","null","","","","","","","","learning/Slide134.JPG","null","","","","",""
"","html-keyboard-response","408","580813","0.0-8.0-1.53","FL","td2t8o9pe4","1536","864","de","HL06IN19","null","","","","learningBlock2","","","","That was a dep.","null","","","","",""
"","html-keyboard-response","409","581826","0.0-8.0-2.53","FL","td2t8o9pe4","1536","864","de","HL06IN19","null","","","","learningBlock2","","","","<div style=""font-size:60px;""> </div>","null","FL","learning/Slide134.JPG","That was a dep.","",""
"","image-keyboard-response","410","582007","0.0-8.0-0.54","FL","td2t8o9pe4","1536","864","de","HL06IN19","null","","","","","","","","learning/Slide135.JPG","null","","","","",""
"","html-keyboard-response","411","583181","0.0-8.0-1.54","FL","td2t8o9pe4","1536","864","de","HL06IN19","null","","","","learningBlock2","","","","That was a tob.","null","","","","",""
"","html-keyboard-response","412","584206","0.0-8.0-2.54","FL","td2t8o9pe4","1536","864","de","HL06IN19","null","","","","learningBlock2","","","","<div style=""font-size:60px;""> </div>","null","FL","learning/Slide135.JPG","That was a tob.","",""
"","image-keyboard-response","413","584396","0.0-8.0-0.55","FL","td2t8o9pe4","1536","864","de","HL06IN19","null","","","","","","","","learning/Slide136.JPG","null","","","","",""
"","html-keyboard-response","414","585569","0.0-8.0-1.55","FL","td2t8o9pe4","1536","864","de","HL06IN19","null","","","","learningBlock2","","","","That was a wug.","null","","","","",""
"","html-keyboard-response","415","586584","0.0-8.0-2.55","FL","td2t8o9pe4","1536","864","de","HL06IN19","null","","","","learningBlock2","","","","<div style=""font-size:60px;""> </div>","null","FL","learning/Slide136.JPG","That was a wug.","",""
"","image-keyboard-response","416","586776","0.0-8.0-0.56","FL","td2t8o9pe4","1536","864","de","HL06IN19","null","","","","","","","","learning/Slide137.JPG","null","","","","",""
"","html-keyboard-response","417","587959","0.0-8.0-1.56","FL","td2t8o9pe4","1536","864","de","HL06IN19","null","","","","learningBlock2","","","","That was a tob.","null","","","","",""
"","html-keyboard-response","418","588962","0.0-8.0-2.56","FL","td2t8o9pe4","1536","864","de","HL06IN19","null","","","","learningBlock2","","","","<div style=""font-size:60px;""> </div>","null","FL","learning/Slide137.JPG","That was a tob.","",""
"","image-keyboard-response","419","589154","0.0-8.0-0.57","FL","td2t8o9pe4","1536","864","de","HL06IN19","null","","","","","","","","learning/Slide138.JPG","null","","","","",""
"","html-keyboard-response","420","590317","0.0-8.0-1.57","FL","td2t8o9pe4","1536","864","de","HL06IN19","null","","","","learningBlock2","","","","That was a bim.","null","","","","",""
"","html-keyboard-response","421","591320","0.0-8.0-2.57","FL","td2t8o9pe4","1536","864","de","HL06IN19","null","","","","learningBlock2","","","","<div style=""font-size:60px;""> </div>","null","FL","learning/Slide138.JPG","That was a bim.","",""
"","image-keyboard-response","422","591501","0.0-8.0-0.58","FL","td2t8o9pe4","1536","864","de","HL06IN19","null","","","","","","","","learning/Slide139.JPG","null","","","","",""
"","html-keyboard-response","423","592674","0.0-8.0-1.58","FL","td2t8o9pe4","1536","864","de","HL06IN19","null","","","","learningBlock2","","","","That was a wug.","null","","","","",""
"","html-keyboard-response","424","593677","0.0-8.0-2.58","FL","td2t8o9pe4","1536","864","de","HL06IN19","null","","","","learningBlock2","","","","<div style=""font-size:60px;""> </div>","null","FL","learning/Slide139.JPG","That was a wug.","",""
"","image-keyboard-response","425","593858","0.0-8.0-0.59","FL","td2t8o9pe4","1536","864","de","HL06IN19","null","","","","","","","","learning/Slide140.JPG","null","","","","",""
"","html-keyboard-response","426","595031","0.0-8.0-1.59","FL","td2t8o9pe4","1536","864","de","HL06IN19","null","","","","learningBlock2","","","","That was a dep.","null","","","","",""
"","html-keyboard-response","427","596045","0.0-8.0-2.59","FL","td2t8o9pe4","1536","864","de","HL06IN19","null","","","","learningBlock2","","","","<div style=""font-size:60px;""> </div>","null","FL","learning/Slide140.JPG","That was a dep.","",""
"","image-keyboard-response","428","596237","0.0-8.0-0.60","FL","td2t8o9pe4","1536","864","de","HL06IN19","null","","","","","","","","learning/Slide141.JPG","null","","","","",""
"","html-keyboard-response","429","597410","0.0-8.0-1.60","FL","td2t8o9pe4","1536","864","de","HL06IN19","null","","","","learningBlock2","","","","That was a tob.","null","","","","",""
"","html-keyboard-response","430","598413","0.0-8.0-2.60","FL","td2t8o9pe4","1536","864","de","HL06IN19","null","","","","learningBlock2","","","","<div style=""font-size:60px;""> </div>","null","FL","learning/Slide141.JPG","That was a tob.","",""
"","image-keyboard-response","431","598593","0.0-8.0-0.61","FL","td2t8o9pe4","1536","864","de","HL06IN19","null","","","","","","","","learning/Slide142.JPG","null","","","","",""
"","html-keyboard-response","432","599757","0.0-8.0-1.61","FL","td2t8o9pe4","1536","864","de","HL06IN19","null","","","","learningBlock2","","","","That was a wug.","null","","","","",""
"","html-keyboard-response","433","600771","0.0-8.0-2.61","FL","td2t8o9pe4","1536","864","de","HL06IN19","null","","","","learningBlock2","","","","<div style=""font-size:60px;""> </div>","null","FL","learning/Slide142.JPG","That was a wug.","",""
"","image-keyboard-response","434","600962","0.0-8.0-0.62","FL","td2t8o9pe4","1536","864","de","HL06IN19","null","","","","","","","","learning/Slide143.JPG","null","","","","",""
"","html-keyboard-response","435","602147","0.0-8.0-1.62","FL","td2t8o9pe4","1536","864","de","HL06IN19","null","","","","learningBlock2","","","","That was a bim.","null","","","","",""
"","html-keyboard-response","436","603148","0.0-8.0-2.62","FL","td2t8o9pe4","1536","864","de","HL06IN19","null","","","","learningBlock2","","","","<div style=""font-size:60px;""> </div>","null","FL","learning/Slide143.JPG","That was a bim.","",""
"","image-keyboard-response","437","603341","0.0-8.0-0.63","FL","td2t8o9pe4","1536","864","de","HL06IN19","null","","","","","","","","learning/Slide144.JPG","null","","","","",""
"","html-keyboard-response","438","604515","0.0-8.0-1.63","FL","td2t8o9pe4","1536","864","de","HL06IN19","null","","","","learningBlock2","","","","That was a dep.","null","","","","",""
"","html-keyboard-response","439","605517","0.0-8.0-2.63","FL","td2t8o9pe4","1536","864","de","HL06IN19","null","","","","learningBlock2","","","","<div style=""font-size:60px;""> </div>","null","FL","learning/Slide144.JPG","That was a dep.","",""
"","image-keyboard-response","440","605709","0.0-8.0-0.64","FL","td2t8o9pe4","1536","864","de","HL06IN19","null","","","","","","","","learning/Slide145.JPG","null","","","","",""
"","html-keyboard-response","441","606883","0.0-8.0-1.64","FL","td2t8o9pe4","1536","864","de","HL06IN19","null","","","","learningBlock2","","","","That was a bim.","null","","","","",""
"","html-keyboard-response","442","607885","0.0-8.0-2.64","FL","td2t8o9pe4","1536","864","de","HL06IN19","null","","","","learningBlock2","","","","<div style=""font-size:60px;""> </div>","null","FL","learning/Slide145.JPG","That was a bim.","",""
"","image-keyboard-response","443","608076","0.0-8.0-0.65","FL","td2t8o9pe4","1536","864","de","HL06IN19","null","","","","","","","","learning/Slide146.JPG","null","","","","",""
"","html-keyboard-response","444","609260","0.0-8.0-1.65","FL","td2t8o9pe4","1536","864","de","HL06IN19","null","","","","learningBlock2","","","","That was a tob.","null","","","","",""
"","html-keyboard-response","445","610264","0.0-8.0-2.65","FL","td2t8o9pe4","1536","864","de","HL06IN19","null","","","","learningBlock2","","","","<div style=""font-size:60px;""> </div>","null","FL","learning/Slide146.JPG","That was a tob.","",""
"","image-keyboard-response","446","610453","0.0-8.0-0.66","FL","td2t8o9pe4","1536","864","de","HL06IN19","null","","","","","","","","learning/Slide147.JPG","null","","","","",""
"","html-keyboard-response","447","611606","0.0-8.0-1.66","FL","td2t8o9pe4","1536","864","de","HL06IN19","null","","","","learningBlock2","","","","That was a wug.","null","","","","",""
"","html-keyboard-response","448","612632","0.0-8.0-2.66","FL","td2t8o9pe4","1536","864","de","HL06IN19","null","","","","learningBlock2","","","","<div style=""font-size:60px;""> </div>","null","FL","learning/Slide147.JPG","That was a wug.","",""
"","image-keyboard-response","449","612809","0.0-8.0-0.67","FL","td2t8o9pe4","1536","864","de","HL06IN19","null","","","","","","","","learning/Slide148.JPG","null","","","","",""
"","html-keyboard-response","450","613964","0.0-8.0-1.67","FL","td2t8o9pe4","1536","864","de","HL06IN19","null","","","","learningBlock2","","","","That was a bim.","null","","","","",""
"","html-keyboard-response","451","614967","0.0-8.0-2.67","FL","td2t8o9pe4","1536","864","de","HL06IN19","null","","","","learningBlock2","","","","<div style=""font-size:60px;""> </div>","null","FL","learning/Slide148.JPG","That was a bim.","",""
"","image-keyboard-response","452","615160","0.0-8.0-0.68","FL","td2t8o9pe4","1536","864","de","HL06IN19","null","","","","","","","","learning/Slide149.JPG","null","","","","",""
"","html-keyboard-response","453","616334","0.0-8.0-1.68","FL","td2t8o9pe4","1536","864","de","HL06IN19","null","","","","learningBlock2","","","","That was a dep.","null","","","","",""
"","html-keyboard-response","454","617348","0.0-8.0-2.68","FL","td2t8o9pe4","1536","864","de","HL06IN19","null","","","","learningBlock2","","","","<div style=""font-size:60px;""> </div>","null","FL","learning/Slide149.JPG","That was a dep.","",""
"","image-keyboard-response","455","617537","0.0-8.0-0.69","FL","td2t8o9pe4","1536","864","de","HL06IN19","null","","","","","","","","learning/Slide150.JPG","null","","","","",""
"","html-keyboard-response","456","618711","0.0-8.0-1.69","FL","td2t8o9pe4","1536","864","de","HL06IN19","null","","","","learningBlock2","","","","That was a wug.","null","","","","",""
"","html-keyboard-response","457","619714","0.0-8.0-2.69","FL","td2t8o9pe4","1536","864","de","HL06IN19","null","","","","learningBlock2","","","","<div style=""font-size:60px;""> </div>","null","FL","learning/Slide150.JPG","That was a wug.","",""
"","image-keyboard-response","458","619900","0.0-8.0-0.70","FL","td2t8o9pe4","1536","864","de","HL06IN19","null","","","","","","","","learning/Slide151.JPG","null","","","","",""
"","html-keyboard-response","459","621069","0.0-8.0-1.70","FL","td2t8o9pe4","1536","864","de","HL06IN19","null","","","","learningBlock2","","","","That was a dep.","null","","","","",""
"","html-keyboard-response","460","622077","0.0-8.0-2.70","FL","td2t8o9pe4","1536","864","de","HL06IN19","null","","","","learningBlock2","","","","<div style=""font-size:60px;""> </div>","null","FL","learning/Slide151.JPG","That was a dep.","",""
"","image-keyboard-response","461","622263","0.0-8.0-0.71","FL","td2t8o9pe4","1536","864","de","HL06IN19","null","","","","","","","","learning/Slide152.JPG","null","","","","",""
"","html-keyboard-response","462","623447","0.0-8.0-1.71","FL","td2t8o9pe4","1536","864","de","HL06IN19","null","","","","learningBlock2","","","","That was a wug.","null","","","","",""
"","html-keyboard-response","463","624451","0.0-8.0-2.71","FL","td2t8o9pe4","1536","864","de","HL06IN19","null","","","","learningBlock2","","","","<div style=""font-size:60px;""> </div>","null","FL","learning/Slide152.JPG","That was a wug.","",""
"","image-keyboard-response","464","624631","0.0-8.0-0.72","FL","td2t8o9pe4","1536","864","de","HL06IN19","null","","","","","","","","learning/Slide153.JPG","null","","","","",""
"","html-keyboard-response","465","625805","0.0-8.0-1.72","FL","td2t8o9pe4","1536","864","de","HL06IN19","null","","","","learningBlock2","","","","That was a bim.","null","","","","",""
"","html-keyboard-response","466","626817","0.0-8.0-2.72","FL","td2t8o9pe4","1536","864","de","HL06IN19","null","","","","learningBlock2","","","","<div style=""font-size:60px;""> </div>","null","FL","learning/Slide153.JPG","That was a bim.","",""
"","image-keyboard-response","467","626999","0.0-8.0-0.73","FL","td2t8o9pe4","1536","864","de","HL06IN19","null","","","","","","","","learning/Slide154.JPG","null","","","","",""
"","html-keyboard-response","468","628174","0.0-8.0-1.73","FL","td2t8o9pe4","1536","864","de","HL06IN19","null","","","","learningBlock2","","","","That was a tob.","null","","","","",""
"","html-keyboard-response","469","629187","0.0-8.0-2.73","FL","td2t8o9pe4","1536","864","de","HL06IN19","null","","","","learningBlock2","","","","<div style=""font-size:60px;""> </div>","null","FL","learning/Slide154.JPG","That was a tob.","",""
"","image-keyboard-response","470","629378","0.0-8.0-0.74","FL","td2t8o9pe4","1536","864","de","HL06IN19","null","","","","","","","","learning/Slide155.JPG","null","","","","",""
"","html-keyboard-response","471","630538","0.0-8.0-1.74","FL","td2t8o9pe4","1536","864","de","HL06IN19","null","","","","learningBlock2","","","","That was a dep.","null","","","","",""
"","html-keyboard-response","472","631555","0.0-8.0-2.74","FL","td2t8o9pe4","1536","864","de","HL06IN19","null","","","","learningBlock2","","","","<div style=""font-size:60px;""> </div>","null","FL","learning/Slide155.JPG","That was a dep.","",""
"","image-keyboard-response","473","631735","0.0-8.0-0.75","FL","td2t8o9pe4","1536","864","de","HL06IN19","null","","","","","","","","learning/Slide156.JPG","null","","","","",""
"","html-keyboard-response","474","632920","0.0-8.0-1.75","FL","td2t8o9pe4","1536","864","de","HL06IN19","null","","","","learningBlock2","","","","That was a bim.","null","","","","",""
"","html-keyboard-response","475","633922","0.0-8.0-2.75","FL","td2t8o9pe4","1536","864","de","HL06IN19","null","","","","learningBlock2","","","","<div style=""font-size:60px;""> </div>","null","FL","learning/Slide156.JPG","That was a bim.","",""
"","image-keyboard-response","476","634114","0.0-8.0-0.76","FL","td2t8o9pe4","1536","864","de","HL06IN19","null","","","","","","","","learning/Slide157.JPG","null","","","","",""
"","html-keyboard-response","477","635298","0.0-8.0-1.76","FL","td2t8o9pe4","1536","864","de","HL06IN19","null","","","","learningBlock2","","","","That was a dep.","null","","","","",""
"","html-keyboard-response","478","636301","0.0-8.0-2.76","FL","td2t8o9pe4","1536","864","de","HL06IN19","null","","","","learningBlock2","","","","<div style=""font-size:60px;""> </div>","null","FL","learning/Slide157.JPG","That was a dep.","",""
"","image-keyboard-response","479","636492","0.0-8.0-0.77","FL","td2t8o9pe4","1536","864","de","HL06IN19","null","","","","","","","","learning/Slide158.JPG","null","","","","",""
"","html-keyboard-response","480","637676","0.0-8.0-1.77","FL","td2t8o9pe4","1536","864","de","HL06IN19","null","","","","learningBlock2","","","","That was a tob.","null","","","","",""
"","html-keyboard-response","481","638679","0.0-8.0-2.77","FL","td2t8o9pe4","1536","864","de","HL06IN19","null","","","","learningBlock2","","","","<div style=""font-size:60px;""> </div>","null","FL","learning/Slide158.JPG","That was a tob.","",""
"","image-keyboard-response","482","638860","0.0-8.0-0.78","FL","td2t8o9pe4","1536","864","de","HL06IN19","null","","","","","","","","learning/Slide159.JPG","null","","","","",""
"","html-keyboard-response","483","640023","0.0-8.0-1.78","FL","td2t8o9pe4","1536","864","de","HL06IN19","null","","","","learningBlock2","","","","That was a dep.","null","","","","",""
"","html-keyboard-response","484","641025","0.0-8.0-2.78","FL","td2t8o9pe4","1536","864","de","HL06IN19","null","","","","learningBlock2","","","","<div style=""font-size:60px;""> </div>","null","FL","learning/Slide159.JPG","That was a dep.","",""
"","image-keyboard-response","485","641216","0.0-8.0-0.79","FL","td2t8o9pe4","1536","864","de","HL06IN19","null","","","","","","","","learning/Slide160.JPG","null","","","","",""
"","html-keyboard-response","486","642371","0.0-8.0-1.79","FL","td2t8o9pe4","1536","864","de","HL06IN19","null","","","","learningBlock2","","","","That was a wug.","null","","","","",""
"","html-keyboard-response","487","643384","0.0-8.0-2.79","FL","td2t8o9pe4","1536","864","de","HL06IN19","null","","","","learningBlock2","","","","<div style=""font-size:60px;""> </div>","null","FL","learning/Slide160.JPG","That was a wug.","",""
"","resize2","488","646391","0.0-9.0","FL","td2t8o9pe4","1536","864","de","HL06IN19","","","","","","","103","1.03","","","","","","",""
