"success","trial_type","trial_index","time_elapsed","internal_node_id","condition","subject","screen_width","screen_height","language","codeword","rt","responses","url","view_history","test_part","final_height_px","final_width_px","scale_factor","stimulus","key_press","learningType","presentedImage","presentedLabel","button_pressed","response"
"true","fullscreen","0","7255","0.0-0.0","FL","ltyqe11amm","1920","1080","de","er05in25","","","","","","","","","","","","","","",""
"","survey-html-form","1","22178","0.0-1.0","FL","ltyqe11amm","1920","1080","de","er05in25","14912","{""language"":""de""}","","","","","","","","","","","","",""
"","external-html","2","125793","0.0-2.0-0.0","FL","ltyqe11amm","1920","1080","de","er05in25","103512","","text/information.html","","","","","","","","","","","",""
"","external-html","3","238165","0.0-2.0-1.0","FL","ltyqe11amm","1920","1080","de","er05in25","112242","","text/consent.html","","","","","","","","","","","",""
"","survey-html-form","4","333480","0.0-2.0-2.0","FL","ltyqe11amm","1920","1080","de","er05in25","95307","{""codeword_enter"":""er05in25""}","","","","","","","","","","","","",""
"","instructions","5","348748","0.0-4.0","FL","ltyqe11amm","1920","1080","de","er05in25","NA","","","[{""page_index"":0,""viewing_time"":2633},{""page_index"":1,""viewing_time"":11127}]","instructions","","","","","","","","","",""
"","resize","6","492663","0.0-5.0","FL","ltyqe11amm","1920","1080","de","er05in25","","","","","","","480","3.0476190476190474","","","","","","",""
"","image-keyboard-response","7","492843","0.0-6.0-0.0","FL","ltyqe11amm","1920","1080","de","er05in25","null","","","","","","","","learning/Slide1.JPG","null","","","","",""
"","html-keyboard-response","8","493997","0.0-6.0-1.0","FL","ltyqe11amm","1920","1080","de","er05in25","null","","","","learningBlock1","","","","That was a tob.","null","","","","",""
"","html-keyboard-response","9","494999","0.0-6.0-2.0","FL","ltyqe11amm","1920","1080","de","er05in25","null","","","","learningBlock1","","","","<div style=""font-size:60px;""> </div>","null","FL","learning/Slide1.JPG","That was a tob.","",""
"","image-keyboard-response","10","495178","0.0-6.0-0.1","FL","ltyqe11amm","1920","1080","de","er05in25","null","","","","","","","","learning/Slide2.JPG","null","","","","",""
"","html-keyboard-response","11","496331","0.0-6.0-1.1","FL","ltyqe11amm","1920","1080","de","er05in25","null","","","","learningBlock1","","","","That was a wug.","null","","","","",""
"","html-keyboard-response","12","497334","0.0-6.0-2.1","FL","ltyqe11amm","1920","1080","de","er05in25","null","","","","learningBlock1","","","","<div style=""font-size:60px;""> </div>","null","FL","learning/Slide2.JPG","That was a wug.","",""
"","image-keyboard-response","13","497511","0.0-6.0-0.2","FL","ltyqe11amm","1920","1080","de","er05in25","null","","","","","","","","learning/Slide3.JPG","null","","","","",""
"","html-keyboard-response","14","498666","0.0-6.0-1.2","FL","ltyqe11amm","1920","1080","de","er05in25","null","","","","learningBlock1","","","","That was a bim.","null","","","","",""
"","html-keyboard-response","15","499669","0.0-6.0-2.2","FL","ltyqe11amm","1920","1080","de","er05in25","null","","","","learningBlock1","","","","<div style=""font-size:60px;""> </div>","null","FL","learning/Slide3.JPG","That was a bim.","",""
"","image-keyboard-response","16","499846","0.0-6.0-0.3","FL","ltyqe11amm","1920","1080","de","er05in25","null","","","","","","","","learning/Slide4.JPG","null","","","","",""
"","html-keyboard-response","17","500998","0.0-6.0-1.3","FL","ltyqe11amm","1920","1080","de","er05in25","null","","","","learningBlock1","","","","That was a dep.","null","","","","",""
"","html-keyboard-response","18","502000","0.0-6.0-2.3","FL","ltyqe11amm","1920","1080","de","er05in25","null","","","","learningBlock1","","","","<div style=""font-size:60px;""> </div>","null","FL","learning/Slide4.JPG","That was a dep.","",""
"","image-keyboard-response","19","502178","0.0-6.0-0.4","FL","ltyqe11amm","1920","1080","de","er05in25","null","","","","","","","","learning/Slide5.JPG","null","","","","",""
"","html-keyboard-response","20","503330","0.0-6.0-1.4","FL","ltyqe11amm","1920","1080","de","er05in25","null","","","","learningBlock1","","","","That was a wug.","null","","","","",""
"","html-keyboard-response","21","504332","0.0-6.0-2.4","FL","ltyqe11amm","1920","1080","de","er05in25","null","","","","learningBlock1","","","","<div style=""font-size:60px;""> </div>","null","FL","learning/Slide5.JPG","That was a wug.","",""
"","image-keyboard-response","22","504511","0.0-6.0-0.5","FL","ltyqe11amm","1920","1080","de","er05in25","null","","","","","","","","learning/Slide6.JPG","null","","","","",""
"","html-keyboard-response","23","505665","0.0-6.0-1.5","FL","ltyqe11amm","1920","1080","de","er05in25","null","","","","learningBlock1","","","","That was a dep.","null","","","","",""
"","html-keyboard-response","24","506667","0.0-6.0-2.5","FL","ltyqe11amm","1920","1080","de","er05in25","null","","","","learningBlock1","","","","<div style=""font-size:60px;""> </div>","null","FL","learning/Slide6.JPG","That was a dep.","",""
"","image-keyboard-response","25","506844","0.0-6.0-0.6","FL","ltyqe11amm","1920","1080","de","er05in25","null","","","","","","","","learning/Slide7.JPG","null","","","","",""
"","html-keyboard-response","26","507997","0.0-6.0-1.6","FL","ltyqe11amm","1920","1080","de","er05in25","null","","","","learningBlock1","","","","That was a wug.","null","","","","",""
"","html-keyboard-response","27","508999","0.0-6.0-2.6","FL","ltyqe11amm","1920","1080","de","er05in25","null","","","","learningBlock1","","","","<div style=""font-size:60px;""> </div>","null","FL","learning/Slide7.JPG","That was a wug.","",""
"","image-keyboard-response","28","509176","0.0-6.0-0.7","FL","ltyqe11amm","1920","1080","de","er05in25","null","","","","","","","","learning/Slide8.JPG","null","","","","",""
"","html-keyboard-response","29","510328","0.0-6.0-1.7","FL","ltyqe11amm","1920","1080","de","er05in25","null","","","","learningBlock1","","","","That was a bim.","null","","","","",""
"","html-keyboard-response","30","511330","0.0-6.0-2.7","FL","ltyqe11amm","1920","1080","de","er05in25","null","","","","learningBlock1","","","","<div style=""font-size:60px;""> </div>","null","FL","learning/Slide8.JPG","That was a bim.","",""
"","image-keyboard-response","31","511508","0.0-6.0-0.8","FL","ltyqe11amm","1920","1080","de","er05in25","null","","","","","","","","learning/Slide9.JPG","null","","","","",""
"","html-keyboard-response","32","512660","0.0-6.0-1.8","FL","ltyqe11amm","1920","1080","de","er05in25","null","","","","learningBlock1","","","","That was a wug.","null","","","","",""
"","html-keyboard-response","33","513663","0.0-6.0-2.8","FL","ltyqe11amm","1920","1080","de","er05in25","null","","","","learningBlock1","","","","<div style=""font-size:60px;""> </div>","null","FL","learning/Slide9.JPG","That was a wug.","",""
"","image-keyboard-response","34","513840","0.0-6.0-0.9","FL","ltyqe11amm","1920","1080","de","er05in25","null","","","","","","","","learning/Slide10.JPG","null","","","","",""
"","html-keyboard-response","35","514994","0.0-6.0-1.9","FL","ltyqe11amm","1920","1080","de","er05in25","null","","","","learningBlock1","","","","That was a dep.","null","","","","",""
"","html-keyboard-response","36","515996","0.0-6.0-2.9","FL","ltyqe11amm","1920","1080","de","er05in25","null","","","","learningBlock1","","","","<div style=""font-size:60px;""> </div>","null","FL","learning/Slide10.JPG","That was a dep.","",""
"","image-keyboard-response","37","516174","0.0-6.0-0.10","FL","ltyqe11amm","1920","1080","de","er05in25","null","","","","","","","","learning/Slide11.JPG","null","","","","",""
"","html-keyboard-response","38","517326","0.0-6.0-1.10","FL","ltyqe11amm","1920","1080","de","er05in25","null","","","","learningBlock1","","","","That was a tob.","null","","","","",""
"","html-keyboard-response","39","518328","0.0-6.0-2.10","FL","ltyqe11amm","1920","1080","de","er05in25","null","","","","learningBlock1","","","","<div style=""font-size:60px;""> </div>","null","FL","learning/Slide11.JPG","That was a tob.","",""
"","image-keyboard-response","40","518506","0.0-6.0-0.11","FL","ltyqe11amm","1920","1080","de","er05in25","null","","","","","","","","learning/Slide12.JPG","null","","","","",""
"","html-keyboard-response","41","519659","0.0-6.0-1.11","FL","ltyqe11amm","1920","1080","de","er05in25","null","","","","learningBlock1","","","","That was a dep.","null","","","","",""
"","html-keyboard-response","42","520660","0.0-6.0-2.11","FL","ltyqe11amm","1920","1080","de","er05in25","null","","","","learningBlock1","","","","<div style=""font-size:60px;""> </div>","null","FL","learning/Slide12.JPG","That was a dep.","",""
"","image-keyboard-response","43","520837","0.0-6.0-0.12","FL","ltyqe11amm","1920","1080","de","er05in25","null","","","","","","","","learning/Slide13.JPG","null","","","","",""
"","html-keyboard-response","44","521990","0.0-6.0-1.12","FL","ltyqe11amm","1920","1080","de","er05in25","null","","","","learningBlock1","","","","That was a bim.","null","","","","",""
"","html-keyboard-response","45","522992","0.0-6.0-2.12","FL","ltyqe11amm","1920","1080","de","er05in25","null","","","","learningBlock1","","","","<div style=""font-size:60px;""> </div>","null","FL","learning/Slide13.JPG","That was a bim.","",""
"","image-keyboard-response","46","523169","0.0-6.0-0.13","FL","ltyqe11amm","1920","1080","de","er05in25","null","","","","","","","","learning/Slide14.JPG","null","","","","",""
"","html-keyboard-response","47","524321","0.0-6.0-1.13","FL","ltyqe11amm","1920","1080","de","er05in25","null","","","","learningBlock1","","","","That was a wug.","null","","","","",""
"","html-keyboard-response","48","525323","0.0-6.0-2.13","FL","ltyqe11amm","1920","1080","de","er05in25","null","","","","learningBlock1","","","","<div style=""font-size:60px;""> </div>","null","FL","learning/Slide14.JPG","That was a wug.","",""
"","image-keyboard-response","49","525500","0.0-6.0-0.14","FL","ltyqe11amm","1920","1080","de","er05in25","null","","","","","","","","learning/Slide15.JPG","null","","","","",""
"","html-keyboard-response","50","526653","0.0-6.0-1.14","FL","ltyqe11amm","1920","1080","de","er05in25","null","","","","learningBlock1","","","","That was a tob.","null","","","","",""
"","html-keyboard-response","51","527654","0.0-6.0-2.14","FL","ltyqe11amm","1920","1080","de","er05in25","null","","","","learningBlock1","","","","<div style=""font-size:60px;""> </div>","null","FL","learning/Slide15.JPG","That was a tob.","",""
"","image-keyboard-response","52","527831","0.0-6.0-0.15","FL","ltyqe11amm","1920","1080","de","er05in25","null","","","","","","","","learning/Slide16.JPG","null","","","","",""
"","html-keyboard-response","53","528984","0.0-6.0-1.15","FL","ltyqe11amm","1920","1080","de","er05in25","null","","","","learningBlock1","","","","That was a dep.","null","","","","",""
"","html-keyboard-response","54","529986","0.0-6.0-2.15","FL","ltyqe11amm","1920","1080","de","er05in25","null","","","","learningBlock1","","","","<div style=""font-size:60px;""> </div>","null","FL","learning/Slide16.JPG","That was a dep.","",""
"","image-keyboard-response","55","530164","0.0-6.0-0.16","FL","ltyqe11amm","1920","1080","de","er05in25","null","","","","","","","","learning/Slide17.JPG","null","","","","",""
"","html-keyboard-response","56","531316","0.0-6.0-1.16","FL","ltyqe11amm","1920","1080","de","er05in25","null","","","","learningBlock1","","","","That was a bim.","null","","","","",""
"","html-keyboard-response","57","532318","0.0-6.0-2.16","FL","ltyqe11amm","1920","1080","de","er05in25","null","","","","learningBlock1","","","","<div style=""font-size:60px;""> </div>","null","FL","learning/Slide17.JPG","That was a bim.","",""
"","image-keyboard-response","58","532496","0.0-6.0-0.17","FL","ltyqe11amm","1920","1080","de","er05in25","null","","","","","","","","learning/Slide18.JPG","null","","","","",""
"","html-keyboard-response","59","533648","0.0-6.0-1.17","FL","ltyqe11amm","1920","1080","de","er05in25","null","","","","learningBlock1","","","","That was a tob.","null","","","","",""
"","html-keyboard-response","60","534649","0.0-6.0-2.17","FL","ltyqe11amm","1920","1080","de","er05in25","null","","","","learningBlock1","","","","<div style=""font-size:60px;""> </div>","null","FL","learning/Slide18.JPG","That was a tob.","",""
"","image-keyboard-response","61","534825","0.0-6.0-0.18","FL","ltyqe11amm","1920","1080","de","er05in25","null","","","","","","","","learning/Slide19.JPG","null","","","","",""
"","html-keyboard-response","62","535978","0.0-6.0-1.18","FL","ltyqe11amm","1920","1080","de","er05in25","null","","","","learningBlock1","","","","That was a wug.","null","","","","",""
"","html-keyboard-response","63","536979","0.0-6.0-2.18","FL","ltyqe11amm","1920","1080","de","er05in25","null","","","","learningBlock1","","","","<div style=""font-size:60px;""> </div>","null","FL","learning/Slide19.JPG","That was a wug.","",""
"","image-keyboard-response","64","537156","0.0-6.0-0.19","FL","ltyqe11amm","1920","1080","de","er05in25","null","","","","","","","","learning/Slide20.JPG","null","","","","",""
"","html-keyboard-response","65","538309","0.0-6.0-1.19","FL","ltyqe11amm","1920","1080","de","er05in25","null","","","","learningBlock1","","","","That was a bim.","null","","","","",""
"","html-keyboard-response","66","539311","0.0-6.0-2.19","FL","ltyqe11amm","1920","1080","de","er05in25","null","","","","learningBlock1","","","","<div style=""font-size:60px;""> </div>","null","FL","learning/Slide20.JPG","That was a bim.","",""
"","image-keyboard-response","67","539489","0.0-6.0-0.20","FL","ltyqe11amm","1920","1080","de","er05in25","null","","","","","","","","learning/Slide21.JPG","null","","","","",""
"","html-keyboard-response","68","540641","0.0-6.0-1.20","FL","ltyqe11amm","1920","1080","de","er05in25","null","","","","learningBlock1","","","","That was a dep.","null","","","","",""
"","html-keyboard-response","69","541643","0.0-6.0-2.20","FL","ltyqe11amm","1920","1080","de","er05in25","null","","","","learningBlock1","","","","<div style=""font-size:60px;""> </div>","null","FL","learning/Slide21.JPG","That was a dep.","",""
"","image-keyboard-response","70","541821","0.0-6.0-0.21","FL","ltyqe11amm","1920","1080","de","er05in25","null","","","","","","","","learning/Slide22.JPG","null","","","","",""
"","html-keyboard-response","71","542973","0.0-6.0-1.21","FL","ltyqe11amm","1920","1080","de","er05in25","null","","","","learningBlock1","","","","That was a bim.","null","","","","",""
"","html-keyboard-response","72","543976","0.0-6.0-2.21","FL","ltyqe11amm","1920","1080","de","er05in25","null","","","","learningBlock1","","","","<div style=""font-size:60px;""> </div>","null","FL","learning/Slide22.JPG","That was a bim.","",""
"","image-keyboard-response","73","544152","0.0-6.0-0.22","FL","ltyqe11amm","1920","1080","de","er05in25","null","","","","","","","","learning/Slide23.JPG","null","","","","",""
"","html-keyboard-response","74","545304","0.0-6.0-1.22","FL","ltyqe11amm","1920","1080","de","er05in25","null","","","","learningBlock1","","","","That was a tob.","null","","","","",""
"","html-keyboard-response","75","546306","0.0-6.0-2.22","FL","ltyqe11amm","1920","1080","de","er05in25","null","","","","learningBlock1","","","","<div style=""font-size:60px;""> </div>","null","FL","learning/Slide23.JPG","That was a tob.","",""
"","image-keyboard-response","76","546484","0.0-6.0-0.23","FL","ltyqe11amm","1920","1080","de","er05in25","null","","","","","","","","learning/Slide24.JPG","null","","","","",""
"","html-keyboard-response","77","547636","0.0-6.0-1.23","FL","ltyqe11amm","1920","1080","de","er05in25","null","","","","learningBlock1","","","","That was a wug.","null","","","","",""
"","html-keyboard-response","78","548638","0.0-6.0-2.23","FL","ltyqe11amm","1920","1080","de","er05in25","null","","","","learningBlock1","","","","<div style=""font-size:60px;""> </div>","null","FL","learning/Slide24.JPG","That was a wug.","",""
"","image-keyboard-response","79","548815","0.0-6.0-0.24","FL","ltyqe11amm","1920","1080","de","er05in25","null","","","","","","","","learning/Slide25.JPG","null","","","","",""
"","html-keyboard-response","80","549967","0.0-6.0-1.24","FL","ltyqe11amm","1920","1080","de","er05in25","null","","","","learningBlock1","","","","That was a dep.","null","","","","",""
"","html-keyboard-response","81","550969","0.0-6.0-2.24","FL","ltyqe11amm","1920","1080","de","er05in25","null","","","","learningBlock1","","","","<div style=""font-size:60px;""> </div>","null","FL","learning/Slide25.JPG","That was a dep.","",""
"","image-keyboard-response","82","551147","0.0-6.0-0.25","FL","ltyqe11amm","1920","1080","de","er05in25","null","","","","","","","","learning/Slide26.JPG","null","","","","",""
"","html-keyboard-response","83","552300","0.0-6.0-1.25","FL","ltyqe11amm","1920","1080","de","er05in25","null","","","","learningBlock1","","","","That was a wug.","null","","","","",""
"","html-keyboard-response","84","553301","0.0-6.0-2.25","FL","ltyqe11amm","1920","1080","de","er05in25","null","","","","learningBlock1","","","","<div style=""font-size:60px;""> </div>","null","FL","learning/Slide26.JPG","That was a wug.","",""
"","image-keyboard-response","85","553478","0.0-6.0-0.26","FL","ltyqe11amm","1920","1080","de","er05in25","null","","","","","","","","learning/Slide27.JPG","null","","","","",""
"","html-keyboard-response","86","554631","0.0-6.0-1.26","FL","ltyqe11amm","1920","1080","de","er05in25","null","","","","learningBlock1","","","","That was a bim.","null","","","","",""
"","html-keyboard-response","87","555633","0.0-6.0-2.26","FL","ltyqe11amm","1920","1080","de","er05in25","null","","","","learningBlock1","","","","<div style=""font-size:60px;""> </div>","null","FL","learning/Slide27.JPG","That was a bim.","",""
"","image-keyboard-response","88","555810","0.0-6.0-0.27","FL","ltyqe11amm","1920","1080","de","er05in25","null","","","","","","","","learning/Slide28.JPG","null","","","","",""
"","html-keyboard-response","89","556963","0.0-6.0-1.27","FL","ltyqe11amm","1920","1080","de","er05in25","null","","","","learningBlock1","","","","That was a dep.","null","","","","",""
"","html-keyboard-response","90","557965","0.0-6.0-2.27","FL","ltyqe11amm","1920","1080","de","er05in25","null","","","","learningBlock1","","","","<div style=""font-size:60px;""> </div>","null","FL","learning/Slide28.JPG","That was a dep.","",""
"","image-keyboard-response","91","558142","0.0-6.0-0.28","FL","ltyqe11amm","1920","1080","de","er05in25","null","","","","","","","","learning/Slide29.JPG","null","","","","",""
"","html-keyboard-response","92","559295","0.0-6.0-1.28","FL","ltyqe11amm","1920","1080","de","er05in25","null","","","","learningBlock1","","","","That was a tob.","null","","","","",""
"","html-keyboard-response","93","560296","0.0-6.0-2.28","FL","ltyqe11amm","1920","1080","de","er05in25","null","","","","learningBlock1","","","","<div style=""font-size:60px;""> </div>","null","FL","learning/Slide29.JPG","That was a tob.","",""
"","image-keyboard-response","94","560473","0.0-6.0-0.29","FL","ltyqe11amm","1920","1080","de","er05in25","null","","","","","","","","learning/Slide30.JPG","null","","","","",""
"","html-keyboard-response","95","561625","0.0-6.0-1.29","FL","ltyqe11amm","1920","1080","de","er05in25","null","","","","learningBlock1","","","","That was a dep.","null","","","","",""
"","html-keyboard-response","96","562627","0.0-6.0-2.29","FL","ltyqe11amm","1920","1080","de","er05in25","null","","","","learningBlock1","","","","<div style=""font-size:60px;""> </div>","null","FL","learning/Slide30.JPG","That was a dep.","",""
"","image-keyboard-response","97","562804","0.0-6.0-0.30","FL","ltyqe11amm","1920","1080","de","er05in25","null","","","","","","","","learning/Slide31.JPG","null","","","","",""
"","html-keyboard-response","98","563957","0.0-6.0-1.30","FL","ltyqe11amm","1920","1080","de","er05in25","null","","","","learningBlock1","","","","That was a wug.","null","","","","",""
"","html-keyboard-response","99","564959","0.0-6.0-2.30","FL","ltyqe11amm","1920","1080","de","er05in25","null","","","","learningBlock1","","","","<div style=""font-size:60px;""> </div>","null","FL","learning/Slide31.JPG","That was a wug.","",""
"","image-keyboard-response","100","565136","0.0-6.0-0.31","FL","ltyqe11amm","1920","1080","de","er05in25","null","","","","","","","","learning/Slide32.JPG","null","","","","",""
"","html-keyboard-response","101","566289","0.0-6.0-1.31","FL","ltyqe11amm","1920","1080","de","er05in25","null","","","","learningBlock1","","","","That was a tob.","null","","","","",""
"","html-keyboard-response","102","567291","0.0-6.0-2.31","FL","ltyqe11amm","1920","1080","de","er05in25","null","","","","learningBlock1","","","","<div style=""font-size:60px;""> </div>","null","FL","learning/Slide32.JPG","That was a tob.","",""
"","image-keyboard-response","103","567468","0.0-6.0-0.32","FL","ltyqe11amm","1920","1080","de","er05in25","null","","","","","","","","learning/Slide33.JPG","null","","","","",""
"","html-keyboard-response","104","568621","0.0-6.0-1.32","FL","ltyqe11amm","1920","1080","de","er05in25","null","","","","learningBlock1","","","","That was a bim.","null","","","","",""
"","html-keyboard-response","105","569623","0.0-6.0-2.32","FL","ltyqe11amm","1920","1080","de","er05in25","null","","","","learningBlock1","","","","<div style=""font-size:60px;""> </div>","null","FL","learning/Slide33.JPG","That was a bim.","",""
"","image-keyboard-response","106","569801","0.0-6.0-0.33","FL","ltyqe11amm","1920","1080","de","er05in25","null","","","","","","","","learning/Slide34.JPG","null","","","","",""
"","html-keyboard-response","107","570953","0.0-6.0-1.33","FL","ltyqe11amm","1920","1080","de","er05in25","null","","","","learningBlock1","","","","That was a tob.","null","","","","",""
"","html-keyboard-response","108","571955","0.0-6.0-2.33","FL","ltyqe11amm","1920","1080","de","er05in25","null","","","","learningBlock1","","","","<div style=""font-size:60px;""> </div>","null","FL","learning/Slide34.JPG","That was a tob.","",""
"","image-keyboard-response","109","572133","0.0-6.0-0.34","FL","ltyqe11amm","1920","1080","de","er05in25","null","","","","","","","","learning/Slide35.JPG","null","","","","",""
"","html-keyboard-response","110","573285","0.0-6.0-1.34","FL","ltyqe11amm","1920","1080","de","er05in25","null","","","","learningBlock1","","","","That was a bim.","null","","","","",""
"","html-keyboard-response","111","574287","0.0-6.0-2.34","FL","ltyqe11amm","1920","1080","de","er05in25","null","","","","learningBlock1","","","","<div style=""font-size:60px;""> </div>","null","FL","learning/Slide35.JPG","That was a bim.","",""
"","image-keyboard-response","112","574464","0.0-6.0-0.35","FL","ltyqe11amm","1920","1080","de","er05in25","null","","","","","","","","learning/Slide36.JPG","null","","","","",""
"","html-keyboard-response","113","575616","0.0-6.0-1.35","FL","ltyqe11amm","1920","1080","de","er05in25","null","","","","learningBlock1","","","","That was a dep.","null","","","","",""
"","html-keyboard-response","114","576619","0.0-6.0-2.35","FL","ltyqe11amm","1920","1080","de","er05in25","null","","","","learningBlock1","","","","<div style=""font-size:60px;""> </div>","null","FL","learning/Slide36.JPG","That was a dep.","",""
"","image-keyboard-response","115","576796","0.0-6.0-0.36","FL","ltyqe11amm","1920","1080","de","er05in25","null","","","","","","","","learning/Slide37.JPG","null","","","","",""
"","html-keyboard-response","116","577949","0.0-6.0-1.36","FL","ltyqe11amm","1920","1080","de","er05in25","null","","","","learningBlock1","","","","That was a tob.","null","","","","",""
"","html-keyboard-response","117","578950","0.0-6.0-2.36","FL","ltyqe11amm","1920","1080","de","er05in25","null","","","","learningBlock1","","","","<div style=""font-size:60px;""> </div>","null","FL","learning/Slide37.JPG","That was a tob.","",""
"","image-keyboard-response","118","579127","0.0-6.0-0.37","FL","ltyqe11amm","1920","1080","de","er05in25","null","","","","","","","","learning/Slide38.JPG","null","","","","",""
"","html-keyboard-response","119","580280","0.0-6.0-1.37","FL","ltyqe11amm","1920","1080","de","er05in25","null","","","","learningBlock1","","","","That was a wug.","null","","","","",""
"","html-keyboard-response","120","581282","0.0-6.0-2.37","FL","ltyqe11amm","1920","1080","de","er05in25","null","","","","learningBlock1","","","","<div style=""font-size:60px;""> </div>","null","FL","learning/Slide38.JPG","That was a wug.","",""
"","image-keyboard-response","121","581458","0.0-6.0-0.38","FL","ltyqe11amm","1920","1080","de","er05in25","null","","","","","","","","learning/Slide39.JPG","null","","","","",""
"","html-keyboard-response","122","582610","0.0-6.0-1.38","FL","ltyqe11amm","1920","1080","de","er05in25","null","","","","learningBlock1","","","","That was a bim.","null","","","","",""
"","html-keyboard-response","123","583612","0.0-6.0-2.38","FL","ltyqe11amm","1920","1080","de","er05in25","null","","","","learningBlock1","","","","<div style=""font-size:60px;""> </div>","null","FL","learning/Slide39.JPG","That was a bim.","",""
"","image-keyboard-response","124","583789","0.0-6.0-0.39","FL","ltyqe11amm","1920","1080","de","er05in25","null","","","","","","","","learning/Slide40.JPG","null","","","","",""
"","html-keyboard-response","125","584943","0.0-6.0-1.39","FL","ltyqe11amm","1920","1080","de","er05in25","null","","","","learningBlock1","","","","That was a tob.","null","","","","",""
"","html-keyboard-response","126","585944","0.0-6.0-2.39","FL","ltyqe11amm","1920","1080","de","er05in25","null","","","","learningBlock1","","","","<div style=""font-size:60px;""> </div>","null","FL","learning/Slide40.JPG","That was a tob.","",""
"","image-keyboard-response","127","586121","0.0-6.0-0.40","FL","ltyqe11amm","1920","1080","de","er05in25","null","","","","","","","","learning/Slide41.JPG","null","","","","",""
"","html-keyboard-response","128","587273","0.0-6.0-1.40","FL","ltyqe11amm","1920","1080","de","er05in25","null","","","","learningBlock1","","","","That was a bim.","null","","","","",""
"","html-keyboard-response","129","588276","0.0-6.0-2.40","FL","ltyqe11amm","1920","1080","de","er05in25","null","","","","learningBlock1","","","","<div style=""font-size:60px;""> </div>","null","FL","learning/Slide41.JPG","That was a bim.","",""
"","image-keyboard-response","130","588453","0.0-6.0-0.41","FL","ltyqe11amm","1920","1080","de","er05in25","null","","","","","","","","learning/Slide42.JPG","null","","","","",""
"","html-keyboard-response","131","589604","0.0-6.0-1.41","FL","ltyqe11amm","1920","1080","de","er05in25","null","","","","learningBlock1","","","","That was a dep.","null","","","","",""
"","html-keyboard-response","132","590606","0.0-6.0-2.41","FL","ltyqe11amm","1920","1080","de","er05in25","null","","","","learningBlock1","","","","<div style=""font-size:60px;""> </div>","null","FL","learning/Slide42.JPG","That was a dep.","",""
"","image-keyboard-response","133","590784","0.0-6.0-0.42","FL","ltyqe11amm","1920","1080","de","er05in25","null","","","","","","","","learning/Slide43.JPG","null","","","","",""
"","html-keyboard-response","134","591936","0.0-6.0-1.42","FL","ltyqe11amm","1920","1080","de","er05in25","null","","","","learningBlock1","","","","That was a wug.","null","","","","",""
"","html-keyboard-response","135","592938","0.0-6.0-2.42","FL","ltyqe11amm","1920","1080","de","er05in25","null","","","","learningBlock1","","","","<div style=""font-size:60px;""> </div>","null","FL","learning/Slide43.JPG","That was a wug.","",""
"","image-keyboard-response","136","593114","0.0-6.0-0.43","FL","ltyqe11amm","1920","1080","de","er05in25","null","","","","","","","","learning/Slide44.JPG","null","","","","",""
"","html-keyboard-response","137","594267","0.0-6.0-1.43","FL","ltyqe11amm","1920","1080","de","er05in25","null","","","","learningBlock1","","","","That was a bim.","null","","","","",""
"","html-keyboard-response","138","595269","0.0-6.0-2.43","FL","ltyqe11amm","1920","1080","de","er05in25","null","","","","learningBlock1","","","","<div style=""font-size:60px;""> </div>","null","FL","learning/Slide44.JPG","That was a bim.","",""
"","image-keyboard-response","139","595446","0.0-6.0-0.44","FL","ltyqe11amm","1920","1080","de","er05in25","null","","","","","","","","learning/Slide45.JPG","null","","","","",""
"","html-keyboard-response","140","596598","0.0-6.0-1.44","FL","ltyqe11amm","1920","1080","de","er05in25","null","","","","learningBlock1","","","","That was a wug.","null","","","","",""
"","html-keyboard-response","141","597600","0.0-6.0-2.44","FL","ltyqe11amm","1920","1080","de","er05in25","null","","","","learningBlock1","","","","<div style=""font-size:60px;""> </div>","null","FL","learning/Slide45.JPG","That was a wug.","",""
"","image-keyboard-response","142","597777","0.0-6.0-0.45","FL","ltyqe11amm","1920","1080","de","er05in25","null","","","","","","","","learning/Slide46.JPG","null","","","","",""
"","html-keyboard-response","143","598931","0.0-6.0-1.45","FL","ltyqe11amm","1920","1080","de","er05in25","null","","","","learningBlock1","","","","That was a dep.","null","","","","",""
"","html-keyboard-response","144","599933","0.0-6.0-2.45","FL","ltyqe11amm","1920","1080","de","er05in25","null","","","","learningBlock1","","","","<div style=""font-size:60px;""> </div>","null","FL","learning/Slide46.JPG","That was a dep.","",""
"","image-keyboard-response","145","600110","0.0-6.0-0.46","FL","ltyqe11amm","1920","1080","de","er05in25","null","","","","","","","","learning/Slide47.JPG","null","","","","",""
"","html-keyboard-response","146","601263","0.0-6.0-1.46","FL","ltyqe11amm","1920","1080","de","er05in25","null","","","","learningBlock1","","","","That was a tob.","null","","","","",""
"","html-keyboard-response","147","602265","0.0-6.0-2.46","FL","ltyqe11amm","1920","1080","de","er05in25","null","","","","learningBlock1","","","","<div style=""font-size:60px;""> </div>","null","FL","learning/Slide47.JPG","That was a tob.","",""
"","image-keyboard-response","148","602442","0.0-6.0-0.47","FL","ltyqe11amm","1920","1080","de","er05in25","null","","","","","","","","learning/Slide48.JPG","null","","","","",""
"","html-keyboard-response","149","603594","0.0-6.0-1.47","FL","ltyqe11amm","1920","1080","de","er05in25","null","","","","learningBlock1","","","","That was a bim.","null","","","","",""
"","html-keyboard-response","150","604597","0.0-6.0-2.47","FL","ltyqe11amm","1920","1080","de","er05in25","null","","","","learningBlock1","","","","<div style=""font-size:60px;""> </div>","null","FL","learning/Slide48.JPG","That was a bim.","",""
"","image-keyboard-response","151","604774","0.0-6.0-0.48","FL","ltyqe11amm","1920","1080","de","er05in25","null","","","","","","","","learning/Slide49.JPG","null","","","","",""
"","html-keyboard-response","152","605926","0.0-6.0-1.48","FL","ltyqe11amm","1920","1080","de","er05in25","null","","","","learningBlock1","","","","That was a dep.","null","","","","",""
"","html-keyboard-response","153","606928","0.0-6.0-2.48","FL","ltyqe11amm","1920","1080","de","er05in25","null","","","","learningBlock1","","","","<div style=""font-size:60px;""> </div>","null","FL","learning/Slide49.JPG","That was a dep.","",""
"","image-keyboard-response","154","607106","0.0-6.0-0.49","FL","ltyqe11amm","1920","1080","de","er05in25","null","","","","","","","","learning/Slide50.JPG","null","","","","",""
"","html-keyboard-response","155","608260","0.0-6.0-1.49","FL","ltyqe11amm","1920","1080","de","er05in25","null","","","","learningBlock1","","","","That was a tob.","null","","","","",""
"","html-keyboard-response","156","609263","0.0-6.0-2.49","FL","ltyqe11amm","1920","1080","de","er05in25","null","","","","learningBlock1","","","","<div style=""font-size:60px;""> </div>","null","FL","learning/Slide50.JPG","That was a tob.","",""
"","image-keyboard-response","157","609439","0.0-6.0-0.50","FL","ltyqe11amm","1920","1080","de","er05in25","null","","","","","","","","learning/Slide51.JPG","null","","","","",""
"","html-keyboard-response","158","610592","0.0-6.0-1.50","FL","ltyqe11amm","1920","1080","de","er05in25","null","","","","learningBlock1","","","","That was a bim.","null","","","","",""
"","html-keyboard-response","159","611593","0.0-6.0-2.50","FL","ltyqe11amm","1920","1080","de","er05in25","null","","","","learningBlock1","","","","<div style=""font-size:60px;""> </div>","null","FL","learning/Slide51.JPG","That was a bim.","",""
"","image-keyboard-response","160","611770","0.0-6.0-0.51","FL","ltyqe11amm","1920","1080","de","er05in25","null","","","","","","","","learning/Slide52.JPG","null","","","","",""
"","html-keyboard-response","161","612923","0.0-6.0-1.51","FL","ltyqe11amm","1920","1080","de","er05in25","null","","","","learningBlock1","","","","That was a wug.","null","","","","",""
"","html-keyboard-response","162","613925","0.0-6.0-2.51","FL","ltyqe11amm","1920","1080","de","er05in25","null","","","","learningBlock1","","","","<div style=""font-size:60px;""> </div>","null","FL","learning/Slide52.JPG","That was a wug.","",""
"","image-keyboard-response","163","614103","0.0-6.0-0.52","FL","ltyqe11amm","1920","1080","de","er05in25","null","","","","","","","","learning/Slide53.JPG","null","","","","",""
"","html-keyboard-response","164","615255","0.0-6.0-1.52","FL","ltyqe11amm","1920","1080","de","er05in25","null","","","","learningBlock1","","","","That was a tob.","null","","","","",""
"","html-keyboard-response","165","616257","0.0-6.0-2.52","FL","ltyqe11amm","1920","1080","de","er05in25","null","","","","learningBlock1","","","","<div style=""font-size:60px;""> </div>","null","FL","learning/Slide53.JPG","That was a tob.","",""
"","image-keyboard-response","166","616434","0.0-6.0-0.53","FL","ltyqe11amm","1920","1080","de","er05in25","null","","","","","","","","learning/Slide54.JPG","null","","","","",""
"","html-keyboard-response","167","617587","0.0-6.0-1.53","FL","ltyqe11amm","1920","1080","de","er05in25","null","","","","learningBlock1","","","","That was a dep.","null","","","","",""
"","html-keyboard-response","168","618589","0.0-6.0-2.53","FL","ltyqe11amm","1920","1080","de","er05in25","null","","","","learningBlock1","","","","<div style=""font-size:60px;""> </div>","null","FL","learning/Slide54.JPG","That was a dep.","",""
"","image-keyboard-response","169","618766","0.0-6.0-0.54","FL","ltyqe11amm","1920","1080","de","er05in25","null","","","","","","","","learning/Slide55.JPG","null","","","","",""
"","html-keyboard-response","170","619920","0.0-6.0-1.54","FL","ltyqe11amm","1920","1080","de","er05in25","null","","","","learningBlock1","","","","That was a bim.","null","","","","",""
"","html-keyboard-response","171","620924","0.0-6.0-2.54","FL","ltyqe11amm","1920","1080","de","er05in25","null","","","","learningBlock1","","","","<div style=""font-size:60px;""> </div>","null","FL","learning/Slide55.JPG","That was a bim.","",""
"","image-keyboard-response","172","621102","0.0-6.0-0.55","FL","ltyqe11amm","1920","1080","de","er05in25","null","","","","","","","","learning/Slide56.JPG","null","","","","",""
"","html-keyboard-response","173","622254","0.0-6.0-1.55","FL","ltyqe11amm","1920","1080","de","er05in25","null","","","","learningBlock1","","","","That was a tob.","null","","","","",""
"","html-keyboard-response","174","623255","0.0-6.0-2.55","FL","ltyqe11amm","1920","1080","de","er05in25","null","","","","learningBlock1","","","","<div style=""font-size:60px;""> </div>","null","FL","learning/Slide56.JPG","That was a tob.","",""
"","image-keyboard-response","175","623433","0.0-6.0-0.56","FL","ltyqe11amm","1920","1080","de","er05in25","null","","","","","","","","learning/Slide57.JPG","null","","","","",""
"","html-keyboard-response","176","624584","0.0-6.0-1.56","FL","ltyqe11amm","1920","1080","de","er05in25","null","","","","learningBlock1","","","","That was a dep.","null","","","","",""
"","html-keyboard-response","177","625586","0.0-6.0-2.56","FL","ltyqe11amm","1920","1080","de","er05in25","null","","","","learningBlock1","","","","<div style=""font-size:60px;""> </div>","null","FL","learning/Slide57.JPG","That was a dep.","",""
"","image-keyboard-response","178","625765","0.0-6.0-0.57","FL","ltyqe11amm","1920","1080","de","er05in25","null","","","","","","","","learning/Slide58.JPG","null","","","","",""
"","html-keyboard-response","179","626917","0.0-6.0-1.57","FL","ltyqe11amm","1920","1080","de","er05in25","null","","","","learningBlock1","","","","That was a wug.","null","","","","",""
"","html-keyboard-response","180","627919","0.0-6.0-2.57","FL","ltyqe11amm","1920","1080","de","er05in25","null","","","","learningBlock1","","","","<div style=""font-size:60px;""> </div>","null","FL","learning/Slide58.JPG","That was a wug.","",""
"","image-keyboard-response","181","628096","0.0-6.0-0.58","FL","ltyqe11amm","1920","1080","de","er05in25","null","","","","","","","","learning/Slide59.JPG","null","","","","",""
"","html-keyboard-response","182","629248","0.0-6.0-1.58","FL","ltyqe11amm","1920","1080","de","er05in25","null","","","","learningBlock1","","","","That was a dep.","null","","","","",""
"","html-keyboard-response","183","630250","0.0-6.0-2.58","FL","ltyqe11amm","1920","1080","de","er05in25","null","","","","learningBlock1","","","","<div style=""font-size:60px;""> </div>","null","FL","learning/Slide59.JPG","That was a dep.","",""
"","image-keyboard-response","184","630427","0.0-6.0-0.59","FL","ltyqe11amm","1920","1080","de","er05in25","null","","","","","","","","learning/Slide60.JPG","null","","","","",""
"","html-keyboard-response","185","631580","0.0-6.0-1.59","FL","ltyqe11amm","1920","1080","de","er05in25","null","","","","learningBlock1","","","","That was a wug.","null","","","","",""
"","html-keyboard-response","186","632581","0.0-6.0-2.59","FL","ltyqe11amm","1920","1080","de","er05in25","null","","","","learningBlock1","","","","<div style=""font-size:60px;""> </div>","null","FL","learning/Slide60.JPG","That was a wug.","",""
"","image-keyboard-response","187","632759","0.0-6.0-0.60","FL","ltyqe11amm","1920","1080","de","er05in25","null","","","","","","","","learning/Slide61.JPG","null","","","","",""
"","html-keyboard-response","188","633911","0.0-6.0-1.60","FL","ltyqe11amm","1920","1080","de","er05in25","null","","","","learningBlock1","","","","That was a bim.","null","","","","",""
"","html-keyboard-response","189","634913","0.0-6.0-2.60","FL","ltyqe11amm","1920","1080","de","er05in25","null","","","","learningBlock1","","","","<div style=""font-size:60px;""> </div>","null","FL","learning/Slide61.JPG","That was a bim.","",""
"","image-keyboard-response","190","635089","0.0-6.0-0.61","FL","ltyqe11amm","1920","1080","de","er05in25","null","","","","","","","","learning/Slide62.JPG","null","","","","",""
"","html-keyboard-response","191","636242","0.0-6.0-1.61","FL","ltyqe11amm","1920","1080","de","er05in25","null","","","","learningBlock1","","","","That was a dep.","null","","","","",""
"","html-keyboard-response","192","637244","0.0-6.0-2.61","FL","ltyqe11amm","1920","1080","de","er05in25","null","","","","learningBlock1","","","","<div style=""font-size:60px;""> </div>","null","FL","learning/Slide62.JPG","That was a dep.","",""
"","image-keyboard-response","193","637422","0.0-6.0-0.62","FL","ltyqe11amm","1920","1080","de","er05in25","null","","","","","","","","learning/Slide63.JPG","null","","","","",""
"","html-keyboard-response","194","638574","0.0-6.0-1.62","FL","ltyqe11amm","1920","1080","de","er05in25","null","","","","learningBlock1","","","","That was a bim.","null","","","","",""
"","html-keyboard-response","195","639576","0.0-6.0-2.62","FL","ltyqe11amm","1920","1080","de","er05in25","null","","","","learningBlock1","","","","<div style=""font-size:60px;""> </div>","null","FL","learning/Slide63.JPG","That was a bim.","",""
"","image-keyboard-response","196","639753","0.0-6.0-0.63","FL","ltyqe11amm","1920","1080","de","er05in25","null","","","","","","","","learning/Slide64.JPG","null","","","","",""
"","html-keyboard-response","197","640905","0.0-6.0-1.63","FL","ltyqe11amm","1920","1080","de","er05in25","null","","","","learningBlock1","","","","That was a tob.","null","","","","",""
"","html-keyboard-response","198","641907","0.0-6.0-2.63","FL","ltyqe11amm","1920","1080","de","er05in25","null","","","","learningBlock1","","","","<div style=""font-size:60px;""> </div>","null","FL","learning/Slide64.JPG","That was a tob.","",""
"","image-keyboard-response","199","642085","0.0-6.0-0.64","FL","ltyqe11amm","1920","1080","de","er05in25","null","","","","","","","","learning/Slide65.JPG","null","","","","",""
"","html-keyboard-response","200","643237","0.0-6.0-1.64","FL","ltyqe11amm","1920","1080","de","er05in25","null","","","","learningBlock1","","","","That was a wug.","null","","","","",""
"","html-keyboard-response","201","644238","0.0-6.0-2.64","FL","ltyqe11amm","1920","1080","de","er05in25","null","","","","learningBlock1","","","","<div style=""font-size:60px;""> </div>","null","FL","learning/Slide65.JPG","That was a wug.","",""
"","image-keyboard-response","202","644416","0.0-6.0-0.65","FL","ltyqe11amm","1920","1080","de","er05in25","null","","","","","","","","learning/Slide66.JPG","null","","","","",""
"","html-keyboard-response","203","645568","0.0-6.0-1.65","FL","ltyqe11amm","1920","1080","de","er05in25","null","","","","learningBlock1","","","","That was a dep.","null","","","","",""
"","html-keyboard-response","204","646570","0.0-6.0-2.65","FL","ltyqe11amm","1920","1080","de","er05in25","null","","","","learningBlock1","","","","<div style=""font-size:60px;""> </div>","null","FL","learning/Slide66.JPG","That was a dep.","",""
"","image-keyboard-response","205","646748","0.0-6.0-0.66","FL","ltyqe11amm","1920","1080","de","er05in25","null","","","","","","","","learning/Slide67.JPG","null","","","","",""
"","html-keyboard-response","206","647900","0.0-6.0-1.66","FL","ltyqe11amm","1920","1080","de","er05in25","null","","","","learningBlock1","","","","That was a tob.","null","","","","",""
"","html-keyboard-response","207","648902","0.0-6.0-2.66","FL","ltyqe11amm","1920","1080","de","er05in25","null","","","","learningBlock1","","","","<div style=""font-size:60px;""> </div>","null","FL","learning/Slide67.JPG","That was a tob.","",""
"","image-keyboard-response","208","649079","0.0-6.0-0.67","FL","ltyqe11amm","1920","1080","de","er05in25","null","","","","","","","","learning/Slide68.JPG","null","","","","",""
"","html-keyboard-response","209","650232","0.0-6.0-1.67","FL","ltyqe11amm","1920","1080","de","er05in25","null","","","","learningBlock1","","","","That was a wug.","null","","","","",""
"","html-keyboard-response","210","651233","0.0-6.0-2.67","FL","ltyqe11amm","1920","1080","de","er05in25","null","","","","learningBlock1","","","","<div style=""font-size:60px;""> </div>","null","FL","learning/Slide68.JPG","That was a wug.","",""
"","image-keyboard-response","211","651411","0.0-6.0-0.68","FL","ltyqe11amm","1920","1080","de","er05in25","null","","","","","","","","learning/Slide69.JPG","null","","","","",""
"","html-keyboard-response","212","652564","0.0-6.0-1.68","FL","ltyqe11amm","1920","1080","de","er05in25","null","","","","learningBlock1","","","","That was a tob.","null","","","","",""
"","html-keyboard-response","213","653565","0.0-6.0-2.68","FL","ltyqe11amm","1920","1080","de","er05in25","null","","","","learningBlock1","","","","<div style=""font-size:60px;""> </div>","null","FL","learning/Slide69.JPG","That was a tob.","",""
"","image-keyboard-response","214","653743","0.0-6.0-0.69","FL","ltyqe11amm","1920","1080","de","er05in25","null","","","","","","","","learning/Slide70.JPG","null","","","","",""
"","html-keyboard-response","215","654896","0.0-6.0-1.69","FL","ltyqe11amm","1920","1080","de","er05in25","null","","","","learningBlock1","","","","That was a dep.","null","","","","",""
"","html-keyboard-response","216","655898","0.0-6.0-2.69","FL","ltyqe11amm","1920","1080","de","er05in25","null","","","","learningBlock1","","","","<div style=""font-size:60px;""> </div>","null","FL","learning/Slide70.JPG","That was a dep.","",""
"","image-keyboard-response","217","656074","0.0-6.0-0.70","FL","ltyqe11amm","1920","1080","de","er05in25","null","","","","","","","","learning/Slide71.JPG","null","","","","",""
"","html-keyboard-response","218","657227","0.0-6.0-1.70","FL","ltyqe11amm","1920","1080","de","er05in25","null","","","","learningBlock1","","","","That was a wug.","null","","","","",""
"","html-keyboard-response","219","658229","0.0-6.0-2.70","FL","ltyqe11amm","1920","1080","de","er05in25","null","","","","learningBlock1","","","","<div style=""font-size:60px;""> </div>","null","FL","learning/Slide71.JPG","That was a wug.","",""
"","image-keyboard-response","220","658406","0.0-6.0-0.71","FL","ltyqe11amm","1920","1080","de","er05in25","null","","","","","","","","learning/Slide72.JPG","null","","","","",""
"","html-keyboard-response","221","659558","0.0-6.0-1.71","FL","ltyqe11amm","1920","1080","de","er05in25","null","","","","learningBlock1","","","","That was a bim.","null","","","","",""
"","html-keyboard-response","222","660560","0.0-6.0-2.71","FL","ltyqe11amm","1920","1080","de","er05in25","null","","","","learningBlock1","","","","<div style=""font-size:60px;""> </div>","null","FL","learning/Slide72.JPG","That was a bim.","",""
"","image-keyboard-response","223","660737","0.0-6.0-0.72","FL","ltyqe11amm","1920","1080","de","er05in25","null","","","","","","","","learning/Slide73.JPG","null","","","","",""
"","html-keyboard-response","224","661890","0.0-6.0-1.72","FL","ltyqe11amm","1920","1080","de","er05in25","null","","","","learningBlock1","","","","That was a wug.","null","","","","",""
"","html-keyboard-response","225","662892","0.0-6.0-2.72","FL","ltyqe11amm","1920","1080","de","er05in25","null","","","","learningBlock1","","","","<div style=""font-size:60px;""> </div>","null","FL","learning/Slide73.JPG","That was a wug.","",""
"","image-keyboard-response","226","663069","0.0-6.0-0.73","FL","ltyqe11amm","1920","1080","de","er05in25","null","","","","","","","","learning/Slide74.JPG","null","","","","",""
"","html-keyboard-response","227","664221","0.0-6.0-1.73","FL","ltyqe11amm","1920","1080","de","er05in25","null","","","","learningBlock1","","","","That was a dep.","null","","","","",""
"","html-keyboard-response","228","665223","0.0-6.0-2.73","FL","ltyqe11amm","1920","1080","de","er05in25","null","","","","learningBlock1","","","","<div style=""font-size:60px;""> </div>","null","FL","learning/Slide74.JPG","That was a dep.","",""
"","image-keyboard-response","229","665400","0.0-6.0-0.74","FL","ltyqe11amm","1920","1080","de","er05in25","null","","","","","","","","learning/Slide75.JPG","null","","","","",""
"","html-keyboard-response","230","666552","0.0-6.0-1.74","FL","ltyqe11amm","1920","1080","de","er05in25","null","","","","learningBlock1","","","","That was a tob.","null","","","","",""
"","html-keyboard-response","231","667554","0.0-6.0-2.74","FL","ltyqe11amm","1920","1080","de","er05in25","null","","","","learningBlock1","","","","<div style=""font-size:60px;""> </div>","null","FL","learning/Slide75.JPG","That was a tob.","",""
"","image-keyboard-response","232","667731","0.0-6.0-0.75","FL","ltyqe11amm","1920","1080","de","er05in25","null","","","","","","","","learning/Slide76.JPG","null","","","","",""
"","html-keyboard-response","233","668883","0.0-6.0-1.75","FL","ltyqe11amm","1920","1080","de","er05in25","null","","","","learningBlock1","","","","That was a bim.","null","","","","",""
"","html-keyboard-response","234","669885","0.0-6.0-2.75","FL","ltyqe11amm","1920","1080","de","er05in25","null","","","","learningBlock1","","","","<div style=""font-size:60px;""> </div>","null","FL","learning/Slide76.JPG","That was a bim.","",""
"","image-keyboard-response","235","670062","0.0-6.0-0.76","FL","ltyqe11amm","1920","1080","de","er05in25","null","","","","","","","","learning/Slide77.JPG","null","","","","",""
"","html-keyboard-response","236","671216","0.0-6.0-1.76","FL","ltyqe11amm","1920","1080","de","er05in25","null","","","","learningBlock1","","","","That was a tob.","null","","","","",""
"","html-keyboard-response","237","672218","0.0-6.0-2.76","FL","ltyqe11amm","1920","1080","de","er05in25","null","","","","learningBlock1","","","","<div style=""font-size:60px;""> </div>","null","FL","learning/Slide77.JPG","That was a tob.","",""
"","image-keyboard-response","238","672395","0.0-6.0-0.77","FL","ltyqe11amm","1920","1080","de","er05in25","null","","","","","","","","learning/Slide78.JPG","null","","","","",""
"","html-keyboard-response","239","673547","0.0-6.0-1.77","FL","ltyqe11amm","1920","1080","de","er05in25","null","","","","learningBlock1","","","","That was a wug.","null","","","","",""
"","html-keyboard-response","240","674549","0.0-6.0-2.77","FL","ltyqe11amm","1920","1080","de","er05in25","null","","","","learningBlock1","","","","<div style=""font-size:60px;""> </div>","null","FL","learning/Slide78.JPG","That was a wug.","",""
"","image-keyboard-response","241","674726","0.0-6.0-0.78","FL","ltyqe11amm","1920","1080","de","er05in25","null","","","","","","","","learning/Slide79.JPG","null","","","","",""
"","html-keyboard-response","242","675879","0.0-6.0-1.78","FL","ltyqe11amm","1920","1080","de","er05in25","null","","","","learningBlock1","","","","That was a bim.","null","","","","",""
"","html-keyboard-response","243","676880","0.0-6.0-2.78","FL","ltyqe11amm","1920","1080","de","er05in25","null","","","","learningBlock1","","","","<div style=""font-size:60px;""> </div>","null","FL","learning/Slide79.JPG","That was a bim.","",""
"","image-keyboard-response","244","677055","0.0-6.0-0.79","FL","ltyqe11amm","1920","1080","de","er05in25","null","","","","","","","","learning/Slide80.JPG","null","","","","",""
"","html-keyboard-response","245","678206","0.0-6.0-1.79","FL","ltyqe11amm","1920","1080","de","er05in25","null","","","","learningBlock1","","","","That was a tob.","null","","","","",""
"","html-keyboard-response","246","679206","0.0-6.0-2.79","FL","ltyqe11amm","1920","1080","de","er05in25","null","","","","learningBlock1","","","","<div style=""font-size:60px;""> </div>","null","FL","learning/Slide80.JPG","That was a tob.","",""
"","instructions","247","701266","0.0-7.0","FL","ltyqe11amm","1920","1080","de","er05in25","NA","","","[{""page_index"":0,""viewing_time"":22059}]","instructions","","","","","","","","","",""
"","image-keyboard-response","248","701441","0.0-8.0-0.0","FL","ltyqe11amm","1920","1080","de","er05in25","null","","","","","","","","learning/Slide81.JPG","null","","","","",""
"","html-keyboard-response","249","702593","0.0-8.0-1.0","FL","ltyqe11amm","1920","1080","de","er05in25","null","","","","learningBlock2","","","","That was a wug.","null","","","","",""
"","html-keyboard-response","250","703596","0.0-8.0-2.0","FL","ltyqe11amm","1920","1080","de","er05in25","null","","","","learningBlock2","","","","<div style=""font-size:60px;""> </div>","null","FL","learning/Slide81.JPG","That was a wug.","",""
"","image-keyboard-response","251","703773","0.0-8.0-0.1","FL","ltyqe11amm","1920","1080","de","er05in25","null","","","","","","","","learning/Slide82.JPG","null","","","","",""
"","html-keyboard-response","252","704925","0.0-8.0-1.1","FL","ltyqe11amm","1920","1080","de","er05in25","null","","","","learningBlock2","","","","That was a bim.","null","","","","",""
"","html-keyboard-response","253","705927","0.0-8.0-2.1","FL","ltyqe11amm","1920","1080","de","er05in25","null","","","","learningBlock2","","","","<div style=""font-size:60px;""> </div>","null","FL","learning/Slide82.JPG","That was a bim.","",""
"","image-keyboard-response","254","706104","0.0-8.0-0.2","FL","ltyqe11amm","1920","1080","de","er05in25","null","","","","","","","","learning/Slide83.JPG","null","","","","",""
"","html-keyboard-response","255","707256","0.0-8.0-1.2","FL","ltyqe11amm","1920","1080","de","er05in25","null","","","","learningBlock2","","","","That was a wug.","null","","","","",""
"","html-keyboard-response","256","708258","0.0-8.0-2.2","FL","ltyqe11amm","1920","1080","de","er05in25","null","","","","learningBlock2","","","","<div style=""font-size:60px;""> </div>","null","FL","learning/Slide83.JPG","That was a wug.","",""
"","image-keyboard-response","257","708436","0.0-8.0-0.3","FL","ltyqe11amm","1920","1080","de","er05in25","null","","","","","","","","learning/Slide84.JPG","null","","","","",""
"","html-keyboard-response","258","709589","0.0-8.0-1.3","FL","ltyqe11amm","1920","1080","de","er05in25","null","","","","learningBlock2","","","","That was a dep.","null","","","","",""
"","html-keyboard-response","259","710590","0.0-8.0-2.3","FL","ltyqe11amm","1920","1080","de","er05in25","null","","","","learningBlock2","","","","<div style=""font-size:60px;""> </div>","null","FL","learning/Slide84.JPG","That was a dep.","",""
"","image-keyboard-response","260","710768","0.0-8.0-0.4","FL","ltyqe11amm","1920","1080","de","er05in25","null","","","","","","","","learning/Slide85.JPG","null","","","","",""
"","html-keyboard-response","261","711920","0.0-8.0-1.4","FL","ltyqe11amm","1920","1080","de","er05in25","null","","","","learningBlock2","","","","That was a bim.","null","","","","",""
"","html-keyboard-response","262","712921","0.0-8.0-2.4","FL","ltyqe11amm","1920","1080","de","er05in25","null","","","","learningBlock2","","","","<div style=""font-size:60px;""> </div>","null","FL","learning/Slide85.JPG","That was a bim.","",""
"","image-keyboard-response","263","713099","0.0-8.0-0.5","FL","ltyqe11amm","1920","1080","de","er05in25","null","","","","","","","","learning/Slide86.JPG","null","","","","",""
"","html-keyboard-response","264","714251","0.0-8.0-1.5","FL","ltyqe11amm","1920","1080","de","er05in25","null","","","","learningBlock2","","","","That was a tob.","null","","","","",""
"","html-keyboard-response","265","715253","0.0-8.0-2.5","FL","ltyqe11amm","1920","1080","de","er05in25","null","","","","learningBlock2","","","","<div style=""font-size:60px;""> </div>","null","FL","learning/Slide86.JPG","That was a tob.","",""
"","image-keyboard-response","266","715431","0.0-8.0-0.6","FL","ltyqe11amm","1920","1080","de","er05in25","null","","","","","","","","learning/Slide87.JPG","null","","","","",""
"","html-keyboard-response","267","716583","0.0-8.0-1.6","FL","ltyqe11amm","1920","1080","de","er05in25","null","","","","learningBlock2","","","","That was a wug.","null","","","","",""
"","html-keyboard-response","268","717585","0.0-8.0-2.6","FL","ltyqe11amm","1920","1080","de","er05in25","null","","","","learningBlock2","","","","<div style=""font-size:60px;""> </div>","null","FL","learning/Slide87.JPG","That was a wug.","",""
"","image-keyboard-response","269","717762","0.0-8.0-0.7","FL","ltyqe11amm","1920","1080","de","er05in25","null","","","","","","","","learning/Slide88.JPG","null","","","","",""
"","html-keyboard-response","270","718915","0.0-8.0-1.7","FL","ltyqe11amm","1920","1080","de","er05in25","null","","","","learningBlock2","","","","That was a tob.","null","","","","",""
"","html-keyboard-response","271","719917","0.0-8.0-2.7","FL","ltyqe11amm","1920","1080","de","er05in25","null","","","","learningBlock2","","","","<div style=""font-size:60px;""> </div>","null","FL","learning/Slide88.JPG","That was a tob.","",""
"","image-keyboard-response","272","720094","0.0-8.0-0.8","FL","ltyqe11amm","1920","1080","de","er05in25","null","","","","","","","","learning/Slide89.JPG","null","","","","",""
"","html-keyboard-response","273","721246","0.0-8.0-1.8","FL","ltyqe11amm","1920","1080","de","er05in25","null","","","","learningBlock2","","","","That was a bim.","null","","","","",""
"","html-keyboard-response","274","722248","0.0-8.0-2.8","FL","ltyqe11amm","1920","1080","de","er05in25","null","","","","learningBlock2","","","","<div style=""font-size:60px;""> </div>","null","FL","learning/Slide89.JPG","That was a bim.","",""
"","image-keyboard-response","275","722425","0.0-8.0-0.9","FL","ltyqe11amm","1920","1080","de","er05in25","null","","","","","","","","learning/Slide90.JPG","null","","","","",""
"","html-keyboard-response","276","723577","0.0-8.0-1.9","FL","ltyqe11amm","1920","1080","de","er05in25","null","","","","learningBlock2","","","","That was a dep.","null","","","","",""
"","html-keyboard-response","277","724579","0.0-8.0-2.9","FL","ltyqe11amm","1920","1080","de","er05in25","null","","","","learningBlock2","","","","<div style=""font-size:60px;""> </div>","null","FL","learning/Slide90.JPG","That was a dep.","",""
"","image-keyboard-response","278","724756","0.0-8.0-0.10","FL","ltyqe11amm","1920","1080","de","er05in25","null","","","","","","","","learning/Slide91.JPG","null","","","","",""
"","html-keyboard-response","279","725908","0.0-8.0-1.10","FL","ltyqe11amm","1920","1080","de","er05in25","null","","","","learningBlock2","","","","That was a wug.","null","","","","",""
"","html-keyboard-response","280","726910","0.0-8.0-2.10","FL","ltyqe11amm","1920","1080","de","er05in25","null","","","","learningBlock2","","","","<div style=""font-size:60px;""> </div>","null","FL","learning/Slide91.JPG","That was a wug.","",""
"","image-keyboard-response","281","727087","0.0-8.0-0.11","FL","ltyqe11amm","1920","1080","de","er05in25","null","","","","","","","","learning/Slide92.JPG","null","","","","",""
"","html-keyboard-response","282","728240","0.0-8.0-1.11","FL","ltyqe11amm","1920","1080","de","er05in25","null","","","","learningBlock2","","","","That was a tob.","null","","","","",""
"","html-keyboard-response","283","729242","0.0-8.0-2.11","FL","ltyqe11amm","1920","1080","de","er05in25","null","","","","learningBlock2","","","","<div style=""font-size:60px;""> </div>","null","FL","learning/Slide92.JPG","That was a tob.","",""
"","image-keyboard-response","284","729418","0.0-8.0-0.12","FL","ltyqe11amm","1920","1080","de","er05in25","null","","","","","","","","learning/Slide93.JPG","null","","","","",""
"","html-keyboard-response","285","730572","0.0-8.0-1.12","FL","ltyqe11amm","1920","1080","de","er05in25","null","","","","learningBlock2","","","","That was a bim.","null","","","","",""
"","html-keyboard-response","286","731574","0.0-8.0-2.12","FL","ltyqe11amm","1920","1080","de","er05in25","null","","","","learningBlock2","","","","<div style=""font-size:60px;""> </div>","null","FL","learning/Slide93.JPG","That was a bim.","",""
"","image-keyboard-response","287","731751","0.0-8.0-0.13","FL","ltyqe11amm","1920","1080","de","er05in25","null","","","","","","","","learning/Slide94.JPG","null","","","","",""
"","html-keyboard-response","288","732902","0.0-8.0-1.13","FL","ltyqe11amm","1920","1080","de","er05in25","null","","","","learningBlock2","","","","That was a tob.","null","","","","",""
"","html-keyboard-response","289","733905","0.0-8.0-2.13","FL","ltyqe11amm","1920","1080","de","er05in25","null","","","","learningBlock2","","","","<div style=""font-size:60px;""> </div>","null","FL","learning/Slide94.JPG","That was a tob.","",""
"","image-keyboard-response","290","734082","0.0-8.0-0.14","FL","ltyqe11amm","1920","1080","de","er05in25","null","","","","","","","","learning/Slide95.JPG","null","","","","",""
"","html-keyboard-response","291","735234","0.0-8.0-1.14","FL","ltyqe11amm","1920","1080","de","er05in25","null","","","","learningBlock2","","","","That was a wug.","null","","","","",""
"","html-keyboard-response","292","736236","0.0-8.0-2.14","FL","ltyqe11amm","1920","1080","de","er05in25","null","","","","learningBlock2","","","","<div style=""font-size:60px;""> </div>","null","FL","learning/Slide95.JPG","That was a wug.","",""
"","image-keyboard-response","293","736413","0.0-8.0-0.15","FL","ltyqe11amm","1920","1080","de","er05in25","null","","","","","","","","learning/Slide96.JPG","null","","","","",""
"","html-keyboard-response","294","737565","0.0-8.0-1.15","FL","ltyqe11amm","1920","1080","de","er05in25","null","","","","learningBlock2","","","","That was a tob.","null","","","","",""
"","html-keyboard-response","295","738568","0.0-8.0-2.15","FL","ltyqe11amm","1920","1080","de","er05in25","null","","","","learningBlock2","","","","<div style=""font-size:60px;""> </div>","null","FL","learning/Slide96.JPG","That was a tob.","",""
"","image-keyboard-response","296","738744","0.0-8.0-0.16","FL","ltyqe11amm","1920","1080","de","er05in25","null","","","","","","","","learning/Slide97.JPG","null","","","","",""
"","html-keyboard-response","297","739896","0.0-8.0-1.16","FL","ltyqe11amm","1920","1080","de","er05in25","null","","","","learningBlock2","","","","That was a dep.","null","","","","",""
"","html-keyboard-response","298","740898","0.0-8.0-2.16","FL","ltyqe11amm","1920","1080","de","er05in25","null","","","","learningBlock2","","","","<div style=""font-size:60px;""> </div>","null","FL","learning/Slide97.JPG","That was a dep.","",""
"","image-keyboard-response","299","741076","0.0-8.0-0.17","FL","ltyqe11amm","1920","1080","de","er05in25","null","","","","","","","","learning/Slide98.JPG","null","","","","",""
"","html-keyboard-response","300","742228","0.0-8.0-1.17","FL","ltyqe11amm","1920","1080","de","er05in25","null","","","","learningBlock2","","","","That was a bim.","null","","","","",""
"","html-keyboard-response","301","743230","0.0-8.0-2.17","FL","ltyqe11amm","1920","1080","de","er05in25","null","","","","learningBlock2","","","","<div style=""font-size:60px;""> </div>","null","FL","learning/Slide98.JPG","That was a bim.","",""
"","image-keyboard-response","302","743407","0.0-8.0-0.18","FL","ltyqe11amm","1920","1080","de","er05in25","null","","","","","","","","learning/Slide99.JPG","null","","","","",""
"","html-keyboard-response","303","744559","0.0-8.0-1.18","FL","ltyqe11amm","1920","1080","de","er05in25","null","","","","learningBlock2","","","","That was a dep.","null","","","","",""
"","html-keyboard-response","304","745562","0.0-8.0-2.18","FL","ltyqe11amm","1920","1080","de","er05in25","null","","","","learningBlock2","","","","<div style=""font-size:60px;""> </div>","null","FL","learning/Slide99.JPG","That was a dep.","",""
"","image-keyboard-response","305","745741","0.0-8.0-0.19","FL","ltyqe11amm","1920","1080","de","er05in25","null","","","","","","","","learning/Slide100.JPG","null","","","","",""
"","html-keyboard-response","306","746893","0.0-8.0-1.19","FL","ltyqe11amm","1920","1080","de","er05in25","null","","","","learningBlock2","","","","That was a bim.","null","","","","",""
"","html-keyboard-response","307","747895","0.0-8.0-2.19","FL","ltyqe11amm","1920","1080","de","er05in25","null","","","","learningBlock2","","","","<div style=""font-size:60px;""> </div>","null","FL","learning/Slide100.JPG","That was a bim.","",""
"","image-keyboard-response","308","748072","0.0-8.0-0.20","FL","ltyqe11amm","1920","1080","de","er05in25","null","","","","","","","","learning/Slide101.JPG","null","","","","",""
"","html-keyboard-response","309","749224","0.0-8.0-1.20","FL","ltyqe11amm","1920","1080","de","er05in25","null","","","","learningBlock2","","","","That was a tob.","null","","","","",""
"","html-keyboard-response","310","750227","0.0-8.0-2.20","FL","ltyqe11amm","1920","1080","de","er05in25","null","","","","learningBlock2","","","","<div style=""font-size:60px;""> </div>","null","FL","learning/Slide101.JPG","That was a tob.","",""
"","image-keyboard-response","311","750404","0.0-8.0-0.21","FL","ltyqe11amm","1920","1080","de","er05in25","null","","","","","","","","learning/Slide102.JPG","null","","","","",""
"","html-keyboard-response","312","751557","0.0-8.0-1.21","FL","ltyqe11amm","1920","1080","de","er05in25","null","","","","learningBlock2","","","","That was a bim.","null","","","","",""
"","html-keyboard-response","313","752559","0.0-8.0-2.21","FL","ltyqe11amm","1920","1080","de","er05in25","null","","","","learningBlock2","","","","<div style=""font-size:60px;""> </div>","null","FL","learning/Slide102.JPG","That was a bim.","",""
"","image-keyboard-response","314","752736","0.0-8.0-0.22","FL","ltyqe11amm","1920","1080","de","er05in25","null","","","","","","","","learning/Slide103.JPG","null","","","","",""
"","html-keyboard-response","315","753889","0.0-8.0-1.22","FL","ltyqe11amm","1920","1080","de","er05in25","null","","","","learningBlock2","","","","That was a dep.","null","","","","",""
"","html-keyboard-response","316","754890","0.0-8.0-2.22","FL","ltyqe11amm","1920","1080","de","er05in25","null","","","","learningBlock2","","","","<div style=""font-size:60px;""> </div>","null","FL","learning/Slide103.JPG","That was a dep.","",""
"","image-keyboard-response","317","755068","0.0-8.0-0.23","FL","ltyqe11amm","1920","1080","de","er05in25","null","","","","","","","","learning/Slide104.JPG","null","","","","",""
"","html-keyboard-response","318","756220","0.0-8.0-1.23","FL","ltyqe11amm","1920","1080","de","er05in25","null","","","","learningBlock2","","","","That was a tob.","null","","","","",""
"","html-keyboard-response","319","757222","0.0-8.0-2.23","FL","ltyqe11amm","1920","1080","de","er05in25","null","","","","learningBlock2","","","","<div style=""font-size:60px;""> </div>","null","FL","learning/Slide104.JPG","That was a tob.","",""
"","image-keyboard-response","320","757400","0.0-8.0-0.24","FL","ltyqe11amm","1920","1080","de","er05in25","null","","","","","","","","learning/Slide105.JPG","null","","","","",""
"","html-keyboard-response","321","758553","0.0-8.0-1.24","FL","ltyqe11amm","1920","1080","de","er05in25","null","","","","learningBlock2","","","","That was a dep.","null","","","","",""
"","html-keyboard-response","322","759555","0.0-8.0-2.24","FL","ltyqe11amm","1920","1080","de","er05in25","null","","","","learningBlock2","","","","<div style=""font-size:60px;""> </div>","null","FL","learning/Slide105.JPG","That was a dep.","",""
"","image-keyboard-response","323","759732","0.0-8.0-0.25","FL","ltyqe11amm","1920","1080","de","er05in25","null","","","","","","","","learning/Slide106.JPG","null","","","","",""
"","html-keyboard-response","324","760885","0.0-8.0-1.25","FL","ltyqe11amm","1920","1080","de","er05in25","null","","","","learningBlock2","","","","That was a wug.","null","","","","",""
"","html-keyboard-response","325","761887","0.0-8.0-2.25","FL","ltyqe11amm","1920","1080","de","er05in25","null","","","","learningBlock2","","","","<div style=""font-size:60px;""> </div>","null","FL","learning/Slide106.JPG","That was a wug.","",""
"","image-keyboard-response","326","762065","0.0-8.0-0.26","FL","ltyqe11amm","1920","1080","de","er05in25","null","","","","","","","","learning/Slide107.JPG","null","","","","",""
"","html-keyboard-response","327","763217","0.0-8.0-1.26","FL","ltyqe11amm","1920","1080","de","er05in25","null","","","","learningBlock2","","","","That was a bim.","null","","","","",""
"","html-keyboard-response","328","764219","0.0-8.0-2.26","FL","ltyqe11amm","1920","1080","de","er05in25","null","","","","learningBlock2","","","","<div style=""font-size:60px;""> </div>","null","FL","learning/Slide107.JPG","That was a bim.","",""
"","image-keyboard-response","329","764396","0.0-8.0-0.27","FL","ltyqe11amm","1920","1080","de","er05in25","null","","","","","","","","learning/Slide108.JPG","null","","","","",""
"","html-keyboard-response","330","765548","0.0-8.0-1.27","FL","ltyqe11amm","1920","1080","de","er05in25","null","","","","learningBlock2","","","","That was a dep.","null","","","","",""
"","html-keyboard-response","331","766550","0.0-8.0-2.27","FL","ltyqe11amm","1920","1080","de","er05in25","null","","","","learningBlock2","","","","<div style=""font-size:60px;""> </div>","null","FL","learning/Slide108.JPG","That was a dep.","",""
"","image-keyboard-response","332","766727","0.0-8.0-0.28","FL","ltyqe11amm","1920","1080","de","er05in25","null","","","","","","","","learning/Slide109.JPG","null","","","","",""
"","html-keyboard-response","333","767879","0.0-8.0-1.28","FL","ltyqe11amm","1920","1080","de","er05in25","null","","","","learningBlock2","","","","That was a wug.","null","","","","",""
"","html-keyboard-response","334","768881","0.0-8.0-2.28","FL","ltyqe11amm","1920","1080","de","er05in25","null","","","","learningBlock2","","","","<div style=""font-size:60px;""> </div>","null","FL","learning/Slide109.JPG","That was a wug.","",""
"","image-keyboard-response","335","769059","0.0-8.0-0.29","FL","ltyqe11amm","1920","1080","de","er05in25","null","","","","","","","","learning/Slide110.JPG","null","","","","",""
"","html-keyboard-response","336","770212","0.0-8.0-1.29","FL","ltyqe11amm","1920","1080","de","er05in25","null","","","","learningBlock2","","","","That was a bim.","null","","","","",""
"","html-keyboard-response","337","771213","0.0-8.0-2.29","FL","ltyqe11amm","1920","1080","de","er05in25","null","","","","learningBlock2","","","","<div style=""font-size:60px;""> </div>","null","FL","learning/Slide110.JPG","That was a bim.","",""
"","image-keyboard-response","338","771391","0.0-8.0-0.30","FL","ltyqe11amm","1920","1080","de","er05in25","null","","","","","","","","learning/Slide111.JPG","null","","","","",""
"","html-keyboard-response","339","772544","0.0-8.0-1.30","FL","ltyqe11amm","1920","1080","de","er05in25","null","","","","learningBlock2","","","","That was a tob.","null","","","","",""
"","html-keyboard-response","340","773546","0.0-8.0-2.30","FL","ltyqe11amm","1920","1080","de","er05in25","null","","","","learningBlock2","","","","<div style=""font-size:60px;""> </div>","null","FL","learning/Slide111.JPG","That was a tob.","",""
"","image-keyboard-response","341","773723","0.0-8.0-0.31","FL","ltyqe11amm","1920","1080","de","er05in25","null","","","","","","","","learning/Slide112.JPG","null","","","","",""
"","html-keyboard-response","342","774876","0.0-8.0-1.31","FL","ltyqe11amm","1920","1080","de","er05in25","null","","","","learningBlock2","","","","That was a wug.","null","","","","",""
"","html-keyboard-response","343","775878","0.0-8.0-2.31","FL","ltyqe11amm","1920","1080","de","er05in25","null","","","","learningBlock2","","","","<div style=""font-size:60px;""> </div>","null","FL","learning/Slide112.JPG","That was a wug.","",""
"","image-keyboard-response","344","776055","0.0-8.0-0.32","FL","ltyqe11amm","1920","1080","de","er05in25","null","","","","","","","","learning/Slide113.JPG","null","","","","",""
"","html-keyboard-response","345","777208","0.0-8.0-1.32","FL","ltyqe11amm","1920","1080","de","er05in25","null","","","","learningBlock2","","","","That was a tob.","null","","","","",""
"","html-keyboard-response","346","778210","0.0-8.0-2.32","FL","ltyqe11amm","1920","1080","de","er05in25","null","","","","learningBlock2","","","","<div style=""font-size:60px;""> </div>","null","FL","learning/Slide113.JPG","That was a tob.","",""
"","image-keyboard-response","347","778388","0.0-8.0-0.33","FL","ltyqe11amm","1920","1080","de","er05in25","null","","","","","","","","learning/Slide114.JPG","null","","","","",""
"","html-keyboard-response","348","779540","0.0-8.0-1.33","FL","ltyqe11amm","1920","1080","de","er05in25","null","","","","learningBlock2","","","","That was a wug.","null","","","","",""
"","html-keyboard-response","349","780542","0.0-8.0-2.33","FL","ltyqe11amm","1920","1080","de","er05in25","null","","","","learningBlock2","","","","<div style=""font-size:60px;""> </div>","null","FL","learning/Slide114.JPG","That was a wug.","",""
"","image-keyboard-response","350","780719","0.0-8.0-0.34","FL","ltyqe11amm","1920","1080","de","er05in25","null","","","","","","","","learning/Slide115.JPG","null","","","","",""
"","html-keyboard-response","351","781872","0.0-8.0-1.34","FL","ltyqe11amm","1920","1080","de","er05in25","null","","","","learningBlock2","","","","That was a bim.","null","","","","",""
"","html-keyboard-response","352","782874","0.0-8.0-2.34","FL","ltyqe11amm","1920","1080","de","er05in25","null","","","","learningBlock2","","","","<div style=""font-size:60px;""> </div>","null","FL","learning/Slide115.JPG","That was a bim.","",""
"","image-keyboard-response","353","783051","0.0-8.0-0.35","FL","ltyqe11amm","1920","1080","de","er05in25","null","","","","","","","","learning/Slide116.JPG","null","","","","",""
"","html-keyboard-response","354","784204","0.0-8.0-1.35","FL","ltyqe11amm","1920","1080","de","er05in25","null","","","","learningBlock2","","","","That was a dep.","null","","","","",""
"","html-keyboard-response","355","785206","0.0-8.0-2.35","FL","ltyqe11amm","1920","1080","de","er05in25","null","","","","learningBlock2","","","","<div style=""font-size:60px;""> </div>","null","FL","learning/Slide116.JPG","That was a dep.","",""
"","image-keyboard-response","356","785383","0.0-8.0-0.36","FL","ltyqe11amm","1920","1080","de","er05in25","null","","","","","","","","learning/Slide117.JPG","null","","","","",""
"","html-keyboard-response","357","786536","0.0-8.0-1.36","FL","ltyqe11amm","1920","1080","de","er05in25","null","","","","learningBlock2","","","","That was a tob.","null","","","","",""
"","html-keyboard-response","358","787538","0.0-8.0-2.36","FL","ltyqe11amm","1920","1080","de","er05in25","null","","","","learningBlock2","","","","<div style=""font-size:60px;""> </div>","null","FL","learning/Slide117.JPG","That was a tob.","",""
"","image-keyboard-response","359","787715","0.0-8.0-0.37","FL","ltyqe11amm","1920","1080","de","er05in25","null","","","","","","","","learning/Slide118.JPG","null","","","","",""
"","html-keyboard-response","360","788867","0.0-8.0-1.37","FL","ltyqe11amm","1920","1080","de","er05in25","null","","","","learningBlock2","","","","That was a dep.","null","","","","",""
"","html-keyboard-response","361","789870","0.0-8.0-2.37","FL","ltyqe11amm","1920","1080","de","er05in25","null","","","","learningBlock2","","","","<div style=""font-size:60px;""> </div>","null","FL","learning/Slide118.JPG","That was a dep.","",""
"","image-keyboard-response","362","790048","0.0-8.0-0.38","FL","ltyqe11amm","1920","1080","de","er05in25","null","","","","","","","","learning/Slide119.JPG","null","","","","",""
"","html-keyboard-response","363","791201","0.0-8.0-1.38","FL","ltyqe11amm","1920","1080","de","er05in25","null","","","","learningBlock2","","","","That was a wug.","null","","","","",""
"","html-keyboard-response","364","792202","0.0-8.0-2.38","FL","ltyqe11amm","1920","1080","de","er05in25","null","","","","learningBlock2","","","","<div style=""font-size:60px;""> </div>","null","FL","learning/Slide119.JPG","That was a wug.","",""
"","image-keyboard-response","365","792379","0.0-8.0-0.39","FL","ltyqe11amm","1920","1080","de","er05in25","null","","","","","","","","learning/Slide120.JPG","null","","","","",""
"","html-keyboard-response","366","793532","0.0-8.0-1.39","FL","ltyqe11amm","1920","1080","de","er05in25","null","","","","learningBlock2","","","","That was a dep.","null","","","","",""
"","html-keyboard-response","367","794534","0.0-8.0-2.39","FL","ltyqe11amm","1920","1080","de","er05in25","null","","","","learningBlock2","","","","<div style=""font-size:60px;""> </div>","null","FL","learning/Slide120.JPG","That was a dep.","",""
"","image-keyboard-response","368","794712","0.0-8.0-0.40","FL","ltyqe11amm","1920","1080","de","er05in25","null","","","","","","","","learning/Slide121.JPG","null","","","","",""
"","html-keyboard-response","369","795864","0.0-8.0-1.40","FL","ltyqe11amm","1920","1080","de","er05in25","null","","","","learningBlock2","","","","That was a bim.","null","","","","",""
"","html-keyboard-response","370","796867","0.0-8.0-2.40","FL","ltyqe11amm","1920","1080","de","er05in25","null","","","","learningBlock2","","","","<div style=""font-size:60px;""> </div>","null","FL","learning/Slide121.JPG","That was a bim.","",""
"","image-keyboard-response","371","797044","0.0-8.0-0.41","FL","ltyqe11amm","1920","1080","de","er05in25","null","","","","","","","","learning/Slide122.JPG","null","","","","",""
"","html-keyboard-response","372","798197","0.0-8.0-1.41","FL","ltyqe11amm","1920","1080","de","er05in25","null","","","","learningBlock2","","","","That was a wug.","null","","","","",""
"","html-keyboard-response","373","799199","0.0-8.0-2.41","FL","ltyqe11amm","1920","1080","de","er05in25","null","","","","learningBlock2","","","","<div style=""font-size:60px;""> </div>","null","FL","learning/Slide122.JPG","That was a wug.","",""
"","image-keyboard-response","374","799376","0.0-8.0-0.42","FL","ltyqe11amm","1920","1080","de","er05in25","null","","","","","","","","learning/Slide123.JPG","null","","","","",""
"","html-keyboard-response","375","800528","0.0-8.0-1.42","FL","ltyqe11amm","1920","1080","de","er05in25","null","","","","learningBlock2","","","","That was a bim.","null","","","","",""
"","html-keyboard-response","376","801531","0.0-8.0-2.42","FL","ltyqe11amm","1920","1080","de","er05in25","null","","","","learningBlock2","","","","<div style=""font-size:60px;""> </div>","null","FL","learning/Slide123.JPG","That was a bim.","",""
"","image-keyboard-response","377","801708","0.0-8.0-0.43","FL","ltyqe11amm","1920","1080","de","er05in25","null","","","","","","","","learning/Slide124.JPG","null","","","","",""
"","html-keyboard-response","378","802861","0.0-8.0-1.43","FL","ltyqe11amm","1920","1080","de","er05in25","null","","","","learningBlock2","","","","That was a tob.","null","","","","",""
"","html-keyboard-response","379","803862","0.0-8.0-2.43","FL","ltyqe11amm","1920","1080","de","er05in25","null","","","","learningBlock2","","","","<div style=""font-size:60px;""> </div>","null","FL","learning/Slide124.JPG","That was a tob.","",""
"","image-keyboard-response","380","804040","0.0-8.0-0.44","FL","ltyqe11amm","1920","1080","de","er05in25","null","","","","","","","","learning/Slide125.JPG","null","","","","",""
"","html-keyboard-response","381","805192","0.0-8.0-1.44","FL","ltyqe11amm","1920","1080","de","er05in25","null","","","","learningBlock2","","","","That was a bim.","null","","","","",""
"","html-keyboard-response","382","806195","0.0-8.0-2.44","FL","ltyqe11amm","1920","1080","de","er05in25","null","","","","learningBlock2","","","","<div style=""font-size:60px;""> </div>","null","FL","learning/Slide125.JPG","That was a bim.","",""
"","image-keyboard-response","383","806373","0.0-8.0-0.45","FL","ltyqe11amm","1920","1080","de","er05in25","null","","","","","","","","learning/Slide126.JPG","null","","","","",""
"","html-keyboard-response","384","807526","0.0-8.0-1.45","FL","ltyqe11amm","1920","1080","de","er05in25","null","","","","learningBlock2","","","","That was a tob.","null","","","","",""
"","html-keyboard-response","385","808528","0.0-8.0-2.45","FL","ltyqe11amm","1920","1080","de","er05in25","null","","","","learningBlock2","","","","<div style=""font-size:60px;""> </div>","null","FL","learning/Slide126.JPG","That was a tob.","",""
"","image-keyboard-response","386","808705","0.0-8.0-0.46","FL","ltyqe11amm","1920","1080","de","er05in25","null","","","","","","","","learning/Slide127.JPG","null","","","","",""
"","html-keyboard-response","387","809857","0.0-8.0-1.46","FL","ltyqe11amm","1920","1080","de","er05in25","null","","","","learningBlock2","","","","That was a dep.","null","","","","",""
"","html-keyboard-response","388","810858","0.0-8.0-2.46","FL","ltyqe11amm","1920","1080","de","er05in25","null","","","","learningBlock2","","","","<div style=""font-size:60px;""> </div>","null","FL","learning/Slide127.JPG","That was a dep.","",""
"","image-keyboard-response","389","811036","0.0-8.0-0.47","FL","ltyqe11amm","1920","1080","de","er05in25","null","","","","","","","","learning/Slide128.JPG","null","","","","",""
"","html-keyboard-response","390","812189","0.0-8.0-1.47","FL","ltyqe11amm","1920","1080","de","er05in25","null","","","","learningBlock2","","","","That was a wug.","null","","","","",""
"","html-keyboard-response","391","813191","0.0-8.0-2.47","FL","ltyqe11amm","1920","1080","de","er05in25","null","","","","learningBlock2","","","","<div style=""font-size:60px;""> </div>","null","FL","learning/Slide128.JPG","That was a wug.","",""
"","image-keyboard-response","392","813369","0.0-8.0-0.48","FL","ltyqe11amm","1920","1080","de","er05in25","null","","","","","","","","learning/Slide129.JPG","null","","","","",""
"","html-keyboard-response","393","814521","0.0-8.0-1.48","FL","ltyqe11amm","1920","1080","de","er05in25","null","","","","learningBlock2","","","","That was a tob.","null","","","","",""
"","html-keyboard-response","394","815523","0.0-8.0-2.48","FL","ltyqe11amm","1920","1080","de","er05in25","null","","","","learningBlock2","","","","<div style=""font-size:60px;""> </div>","null","FL","learning/Slide129.JPG","That was a tob.","",""
"","image-keyboard-response","395","815700","0.0-8.0-0.49","FL","ltyqe11amm","1920","1080","de","er05in25","null","","","","","","","","learning/Slide130.JPG","null","","","","",""
"","html-keyboard-response","396","816853","0.0-8.0-1.49","FL","ltyqe11amm","1920","1080","de","er05in25","null","","","","learningBlock2","","","","That was a wug.","null","","","","",""
"","html-keyboard-response","397","817854","0.0-8.0-2.49","FL","ltyqe11amm","1920","1080","de","er05in25","null","","","","learningBlock2","","","","<div style=""font-size:60px;""> </div>","null","FL","learning/Slide130.JPG","That was a wug.","",""
"","image-keyboard-response","398","818032","0.0-8.0-0.50","FL","ltyqe11amm","1920","1080","de","er05in25","null","","","","","","","","learning/Slide131.JPG","null","","","","",""
"","html-keyboard-response","399","819184","0.0-8.0-1.50","FL","ltyqe11amm","1920","1080","de","er05in25","null","","","","learningBlock2","","","","That was a bim.","null","","","","",""
"","html-keyboard-response","400","820186","0.0-8.0-2.50","FL","ltyqe11amm","1920","1080","de","er05in25","null","","","","learningBlock2","","","","<div style=""font-size:60px;""> </div>","null","FL","learning/Slide131.JPG","That was a bim.","",""
"","image-keyboard-response","401","820364","0.0-8.0-0.51","FL","ltyqe11amm","1920","1080","de","er05in25","null","","","","","","","","learning/Slide132.JPG","null","","","","",""
"","html-keyboard-response","402","821516","0.0-8.0-1.51","FL","ltyqe11amm","1920","1080","de","er05in25","null","","","","learningBlock2","","","","That was a dep.","null","","","","",""
"","html-keyboard-response","403","822518","0.0-8.0-2.51","FL","ltyqe11amm","1920","1080","de","er05in25","null","","","","learningBlock2","","","","<div style=""font-size:60px;""> </div>","null","FL","learning/Slide132.JPG","That was a dep.","",""
"","image-keyboard-response","404","822696","0.0-8.0-0.52","FL","ltyqe11amm","1920","1080","de","er05in25","null","","","","","","","","learning/Slide133.JPG","null","","","","",""
"","html-keyboard-response","405","823849","0.0-8.0-1.52","FL","ltyqe11amm","1920","1080","de","er05in25","null","","","","learningBlock2","","","","That was a tob.","null","","","","",""
"","html-keyboard-response","406","824850","0.0-8.0-2.52","FL","ltyqe11amm","1920","1080","de","er05in25","null","","","","learningBlock2","","","","<div style=""font-size:60px;""> </div>","null","FL","learning/Slide133.JPG","That was a tob.","",""
"","image-keyboard-response","407","825028","0.0-8.0-0.53","FL","ltyqe11amm","1920","1080","de","er05in25","null","","","","","","","","learning/Slide134.JPG","null","","","","",""
"","html-keyboard-response","408","826182","0.0-8.0-1.53","FL","ltyqe11amm","1920","1080","de","er05in25","null","","","","learningBlock2","","","","That was a dep.","null","","","","",""
"","html-keyboard-response","409","827184","0.0-8.0-2.53","FL","ltyqe11amm","1920","1080","de","er05in25","null","","","","learningBlock2","","","","<div style=""font-size:60px;""> </div>","null","FL","learning/Slide134.JPG","That was a dep.","",""
"","image-keyboard-response","410","827361","0.0-8.0-0.54","FL","ltyqe11amm","1920","1080","de","er05in25","null","","","","","","","","learning/Slide135.JPG","null","","","","",""
"","html-keyboard-response","411","828513","0.0-8.0-1.54","FL","ltyqe11amm","1920","1080","de","er05in25","null","","","","learningBlock2","","","","That was a tob.","null","","","","",""
"","html-keyboard-response","412","829515","0.0-8.0-2.54","FL","ltyqe11amm","1920","1080","de","er05in25","null","","","","learningBlock2","","","","<div style=""font-size:60px;""> </div>","null","FL","learning/Slide135.JPG","That was a tob.","",""
"","image-keyboard-response","413","829693","0.0-8.0-0.55","FL","ltyqe11amm","1920","1080","de","er05in25","null","","","","","","","","learning/Slide136.JPG","null","","","","",""
"","html-keyboard-response","414","830845","0.0-8.0-1.55","FL","ltyqe11amm","1920","1080","de","er05in25","null","","","","learningBlock2","","","","That was a wug.","null","","","","",""
"","html-keyboard-response","415","831848","0.0-8.0-2.55","FL","ltyqe11amm","1920","1080","de","er05in25","null","","","","learningBlock2","","","","<div style=""font-size:60px;""> </div>","null","FL","learning/Slide136.JPG","That was a wug.","",""
"","image-keyboard-response","416","832025","0.0-8.0-0.56","FL","ltyqe11amm","1920","1080","de","er05in25","null","","","","","","","","learning/Slide137.JPG","null","","","","",""
"","html-keyboard-response","417","833177","0.0-8.0-1.56","FL","ltyqe11amm","1920","1080","de","er05in25","null","","","","learningBlock2","","","","That was a tob.","null","","","","",""
"","html-keyboard-response","418","834179","0.0-8.0-2.56","FL","ltyqe11amm","1920","1080","de","er05in25","null","","","","learningBlock2","","","","<div style=""font-size:60px;""> </div>","null","FL","learning/Slide137.JPG","That was a tob.","",""
"","image-keyboard-response","419","834356","0.0-8.0-0.57","FL","ltyqe11amm","1920","1080","de","er05in25","null","","","","","","","","learning/Slide138.JPG","null","","","","",""
"","html-keyboard-response","420","835509","0.0-8.0-1.57","FL","ltyqe11amm","1920","1080","de","er05in25","null","","","","learningBlock2","","","","That was a bim.","null","","","","",""
"","html-keyboard-response","421","836511","0.0-8.0-2.57","FL","ltyqe11amm","1920","1080","de","er05in25","null","","","","learningBlock2","","","","<div style=""font-size:60px;""> </div>","null","FL","learning/Slide138.JPG","That was a bim.","",""
"","image-keyboard-response","422","836688","0.0-8.0-0.58","FL","ltyqe11amm","1920","1080","de","er05in25","null","","","","","","","","learning/Slide139.JPG","null","","","","",""
"","html-keyboard-response","423","837840","0.0-8.0-1.58","FL","ltyqe11amm","1920","1080","de","er05in25","null","","","","learningBlock2","","","","That was a wug.","null","","","","",""
"","html-keyboard-response","424","838842","0.0-8.0-2.58","FL","ltyqe11amm","1920","1080","de","er05in25","null","","","","learningBlock2","","","","<div style=""font-size:60px;""> </div>","null","FL","learning/Slide139.JPG","That was a wug.","",""
"","image-keyboard-response","425","839020","0.0-8.0-0.59","FL","ltyqe11amm","1920","1080","de","er05in25","null","","","","","","","","learning/Slide140.JPG","null","","","","",""
"","html-keyboard-response","426","840172","0.0-8.0-1.59","FL","ltyqe11amm","1920","1080","de","er05in25","null","","","","learningBlock2","","","","That was a dep.","null","","","","",""
"","html-keyboard-response","427","841175","0.0-8.0-2.59","FL","ltyqe11amm","1920","1080","de","er05in25","null","","","","learningBlock2","","","","<div style=""font-size:60px;""> </div>","null","FL","learning/Slide140.JPG","That was a dep.","",""
"","image-keyboard-response","428","841352","0.0-8.0-0.60","FL","ltyqe11amm","1920","1080","de","er05in25","null","","","","","","","","learning/Slide141.JPG","null","","","","",""
"","html-keyboard-response","429","842504","0.0-8.0-1.60","FL","ltyqe11amm","1920","1080","de","er05in25","null","","","","learningBlock2","","","","That was a tob.","null","","","","",""
"","html-keyboard-response","430","843507","0.0-8.0-2.60","FL","ltyqe11amm","1920","1080","de","er05in25","null","","","","learningBlock2","","","","<div style=""font-size:60px;""> </div>","null","FL","learning/Slide141.JPG","That was a tob.","",""
"","image-keyboard-response","431","843684","0.0-8.0-0.61","FL","ltyqe11amm","1920","1080","de","er05in25","null","","","","","","","","learning/Slide142.JPG","null","","","","",""
"","html-keyboard-response","432","844837","0.0-8.0-1.61","FL","ltyqe11amm","1920","1080","de","er05in25","null","","","","learningBlock2","","","","That was a wug.","null","","","","",""
"","html-keyboard-response","433","845839","0.0-8.0-2.61","FL","ltyqe11amm","1920","1080","de","er05in25","null","","","","learningBlock2","","","","<div style=""font-size:60px;""> </div>","null","FL","learning/Slide142.JPG","That was a wug.","",""
"","image-keyboard-response","434","846016","0.0-8.0-0.62","FL","ltyqe11amm","1920","1080","de","er05in25","null","","","","","","","","learning/Slide143.JPG","null","","","","",""
"","html-keyboard-response","435","847169","0.0-8.0-1.62","FL","ltyqe11amm","1920","1080","de","er05in25","null","","","","learningBlock2","","","","That was a bim.","null","","","","",""
"","html-keyboard-response","436","848170","0.0-8.0-2.62","FL","ltyqe11amm","1920","1080","de","er05in25","null","","","","learningBlock2","","","","<div style=""font-size:60px;""> </div>","null","FL","learning/Slide143.JPG","That was a bim.","",""
"","image-keyboard-response","437","848348","0.0-8.0-0.63","FL","ltyqe11amm","1920","1080","de","er05in25","null","","","","","","","","learning/Slide144.JPG","null","","","","",""
"","html-keyboard-response","438","849500","0.0-8.0-1.63","FL","ltyqe11amm","1920","1080","de","er05in25","null","","","","learningBlock2","","","","That was a dep.","null","","","","",""
"","html-keyboard-response","439","850503","0.0-8.0-2.63","FL","ltyqe11amm","1920","1080","de","er05in25","null","","","","learningBlock2","","","","<div style=""font-size:60px;""> </div>","null","FL","learning/Slide144.JPG","That was a dep.","",""
"","image-keyboard-response","440","850680","0.0-8.0-0.64","FL","ltyqe11amm","1920","1080","de","er05in25","null","","","","","","","","learning/Slide145.JPG","null","","","","",""
"","html-keyboard-response","441","851832","0.0-8.0-1.64","FL","ltyqe11amm","1920","1080","de","er05in25","null","","","","learningBlock2","","","","That was a bim.","null","","","","",""
"","html-keyboard-response","442","852834","0.0-8.0-2.64","FL","ltyqe11amm","1920","1080","de","er05in25","null","","","","learningBlock2","","","","<div style=""font-size:60px;""> </div>","null","FL","learning/Slide145.JPG","That was a bim.","",""
"","image-keyboard-response","443","853011","0.0-8.0-0.65","FL","ltyqe11amm","1920","1080","de","er05in25","null","","","","","","","","learning/Slide146.JPG","null","","","","",""
"","html-keyboard-response","444","854163","0.0-8.0-1.65","FL","ltyqe11amm","1920","1080","de","er05in25","null","","","","learningBlock2","","","","That was a tob.","null","","","","",""
"","html-keyboard-response","445","855166","0.0-8.0-2.65","FL","ltyqe11amm","1920","1080","de","er05in25","null","","","","learningBlock2","","","","<div style=""font-size:60px;""> </div>","null","FL","learning/Slide146.JPG","That was a tob.","",""
"","image-keyboard-response","446","855343","0.0-8.0-0.66","FL","ltyqe11amm","1920","1080","de","er05in25","null","","","","","","","","learning/Slide147.JPG","null","","","","",""
"","html-keyboard-response","447","856496","0.0-8.0-1.66","FL","ltyqe11amm","1920","1080","de","er05in25","null","","","","learningBlock2","","","","That was a wug.","null","","","","",""
"","html-keyboard-response","448","857498","0.0-8.0-2.66","FL","ltyqe11amm","1920","1080","de","er05in25","null","","","","learningBlock2","","","","<div style=""font-size:60px;""> </div>","null","FL","learning/Slide147.JPG","That was a wug.","",""
"","image-keyboard-response","449","857675","0.0-8.0-0.67","FL","ltyqe11amm","1920","1080","de","er05in25","null","","","","","","","","learning/Slide148.JPG","null","","","","",""
"","html-keyboard-response","450","858828","0.0-8.0-1.67","FL","ltyqe11amm","1920","1080","de","er05in25","null","","","","learningBlock2","","","","That was a bim.","null","","","","",""
"","html-keyboard-response","451","859829","0.0-8.0-2.67","FL","ltyqe11amm","1920","1080","de","er05in25","null","","","","learningBlock2","","","","<div style=""font-size:60px;""> </div>","null","FL","learning/Slide148.JPG","That was a bim.","",""
"","image-keyboard-response","452","860007","0.0-8.0-0.68","FL","ltyqe11amm","1920","1080","de","er05in25","null","","","","","","","","learning/Slide149.JPG","null","","","","",""
"","html-keyboard-response","453","861160","0.0-8.0-1.68","FL","ltyqe11amm","1920","1080","de","er05in25","null","","","","learningBlock2","","","","That was a dep.","null","","","","",""
"","html-keyboard-response","454","862162","0.0-8.0-2.68","FL","ltyqe11amm","1920","1080","de","er05in25","null","","","","learningBlock2","","","","<div style=""font-size:60px;""> </div>","null","FL","learning/Slide149.JPG","That was a dep.","",""
"","image-keyboard-response","455","862339","0.0-8.0-0.69","FL","ltyqe11amm","1920","1080","de","er05in25","null","","","","","","","","learning/Slide150.JPG","null","","","","",""
"","html-keyboard-response","456","863492","0.0-8.0-1.69","FL","ltyqe11amm","1920","1080","de","er05in25","null","","","","learningBlock2","","","","That was a wug.","null","","","","",""
"","html-keyboard-response","457","864495","0.0-8.0-2.69","FL","ltyqe11amm","1920","1080","de","er05in25","null","","","","learningBlock2","","","","<div style=""font-size:60px;""> </div>","null","FL","learning/Slide150.JPG","That was a wug.","",""
"","image-keyboard-response","458","864673","0.0-8.0-0.70","FL","ltyqe11amm","1920","1080","de","er05in25","null","","","","","","","","learning/Slide151.JPG","null","","","","",""
"","html-keyboard-response","459","865826","0.0-8.0-1.70","FL","ltyqe11amm","1920","1080","de","er05in25","null","","","","learningBlock2","","","","That was a dep.","null","","","","",""
"","html-keyboard-response","460","866828","0.0-8.0-2.70","FL","ltyqe11amm","1920","1080","de","er05in25","null","","","","learningBlock2","","","","<div style=""font-size:60px;""> </div>","null","FL","learning/Slide151.JPG","That was a dep.","",""
"","image-keyboard-response","461","867005","0.0-8.0-0.71","FL","ltyqe11amm","1920","1080","de","er05in25","null","","","","","","","","learning/Slide152.JPG","null","","","","",""
"","html-keyboard-response","462","868157","0.0-8.0-1.71","FL","ltyqe11amm","1920","1080","de","er05in25","null","","","","learningBlock2","","","","That was a wug.","null","","","","",""
"","html-keyboard-response","463","869160","0.0-8.0-2.71","FL","ltyqe11amm","1920","1080","de","er05in25","null","","","","learningBlock2","","","","<div style=""font-size:60px;""> </div>","null","FL","learning/Slide152.JPG","That was a wug.","",""
"","image-keyboard-response","464","869337","0.0-8.0-0.72","FL","ltyqe11amm","1920","1080","de","er05in25","null","","","","","","","","learning/Slide153.JPG","null","","","","",""
"","html-keyboard-response","465","870490","0.0-8.0-1.72","FL","ltyqe11amm","1920","1080","de","er05in25","null","","","","learningBlock2","","","","That was a bim.","null","","","","",""
"","html-keyboard-response","466","871492","0.0-8.0-2.72","FL","ltyqe11amm","1920","1080","de","er05in25","null","","","","learningBlock2","","","","<div style=""font-size:60px;""> </div>","null","FL","learning/Slide153.JPG","That was a bim.","",""
"","image-keyboard-response","467","871670","0.0-8.0-0.73","FL","ltyqe11amm","1920","1080","de","er05in25","null","","","","","","","","learning/Slide154.JPG","null","","","","",""
"","html-keyboard-response","468","872821","0.0-8.0-1.73","FL","ltyqe11amm","1920","1080","de","er05in25","null","","","","learningBlock2","","","","That was a tob.","null","","","","",""
"","html-keyboard-response","469","873824","0.0-8.0-2.73","FL","ltyqe11amm","1920","1080","de","er05in25","null","","","","learningBlock2","","","","<div style=""font-size:60px;""> </div>","null","FL","learning/Slide154.JPG","That was a tob.","",""
"","image-keyboard-response","470","874001","0.0-8.0-0.74","FL","ltyqe11amm","1920","1080","de","er05in25","null","","","","","","","","learning/Slide155.JPG","null","","","","",""
"","html-keyboard-response","471","875153","0.0-8.0-1.74","FL","ltyqe11amm","1920","1080","de","er05in25","null","","","","learningBlock2","","","","That was a dep.","null","","","","",""
"","html-keyboard-response","472","876156","0.0-8.0-2.74","FL","ltyqe11amm","1920","1080","de","er05in25","null","","","","learningBlock2","","","","<div style=""font-size:60px;""> </div>","null","FL","learning/Slide155.JPG","That was a dep.","",""
"","image-keyboard-response","473","876334","0.0-8.0-0.75","FL","ltyqe11amm","1920","1080","de","er05in25","null","","","","","","","","learning/Slide156.JPG","null","","","","",""
"","html-keyboard-response","474","877487","0.0-8.0-1.75","FL","ltyqe11amm","1920","1080","de","er05in25","null","","","","learningBlock2","","","","That was a bim.","null","","","","",""
"","html-keyboard-response","475","878489","0.0-8.0-2.75","FL","ltyqe11amm","1920","1080","de","er05in25","null","","","","learningBlock2","","","","<div style=""font-size:60px;""> </div>","null","FL","learning/Slide156.JPG","That was a bim.","",""
"","image-keyboard-response","476","878666","0.0-8.0-0.76","FL","ltyqe11amm","1920","1080","de","er05in25","null","","","","","","","","learning/Slide157.JPG","null","","","","",""
"","html-keyboard-response","477","879819","0.0-8.0-1.76","FL","ltyqe11amm","1920","1080","de","er05in25","null","","","","learningBlock2","","","","That was a dep.","null","","","","",""
"","html-keyboard-response","478","880820","0.0-8.0-2.76","FL","ltyqe11amm","1920","1080","de","er05in25","null","","","","learningBlock2","","","","<div style=""font-size:60px;""> </div>","null","FL","learning/Slide157.JPG","That was a dep.","",""
"","image-keyboard-response","479","880998","0.0-8.0-0.77","FL","ltyqe11amm","1920","1080","de","er05in25","null","","","","","","","","learning/Slide158.JPG","null","","","","",""
"","html-keyboard-response","480","882150","0.0-8.0-1.77","FL","ltyqe11amm","1920","1080","de","er05in25","null","","","","learningBlock2","","","","That was a tob.","null","","","","",""
"","html-keyboard-response","481","883152","0.0-8.0-2.77","FL","ltyqe11amm","1920","1080","de","er05in25","null","","","","learningBlock2","","","","<div style=""font-size:60px;""> </div>","null","FL","learning/Slide158.JPG","That was a tob.","",""
"","image-keyboard-response","482","883329","0.0-8.0-0.78","FL","ltyqe11amm","1920","1080","de","er05in25","null","","","","","","","","learning/Slide159.JPG","null","","","","",""
"","html-keyboard-response","483","884482","0.0-8.0-1.78","FL","ltyqe11amm","1920","1080","de","er05in25","null","","","","learningBlock2","","","","That was a dep.","null","","","","",""
"","html-keyboard-response","484","885484","0.0-8.0-2.78","FL","ltyqe11amm","1920","1080","de","er05in25","null","","","","learningBlock2","","","","<div style=""font-size:60px;""> </div>","null","FL","learning/Slide159.JPG","That was a dep.","",""
"","image-keyboard-response","485","885662","0.0-8.0-0.79","FL","ltyqe11amm","1920","1080","de","er05in25","null","","","","","","","","learning/Slide160.JPG","null","","","","",""
"","html-keyboard-response","486","886814","0.0-8.0-1.79","FL","ltyqe11amm","1920","1080","de","er05in25","null","","","","learningBlock2","","","","That was a wug.","null","","","","",""
