"success","trial_type","trial_index","time_elapsed","internal_node_id","condition","subject","screen_width","screen_height","language","codeword","rt","responses","url","view_history","test_part","final_height_px","final_width_px","scale_factor","stimulus","key_press","learningType","presentedImage","presentedLabel","button_pressed","response"
"true","fullscreen","0","3401","0.0-0.0","FL","9hgljjcs6a","1440","900","de","ER06RD19","","","","","","","","","","","","","","",""
"","survey-html-form","1","9467","0.0-1.0","FL","9hgljjcs6a","1440","900","de","ER06RD19","6042","{""language"":""de""}","","","","","","","","","","","","",""
"","external-html","2","45893","0.0-2.0-0.0","FL","9hgljjcs6a","1440","900","de","ER06RD19","36388","","text/information.html","","","","","","","","","","","",""
"","external-html","3","56664","0.0-2.0-1.0","FL","9hgljjcs6a","1440","900","de","ER06RD19","10717","","text/consent.html","","","","","","","","","","","",""
"","survey-html-form","4","112424","0.0-2.0-2.0","FL","9hgljjcs6a","1440","900","de","ER06RD19","55750","{""codeword_enter"":""ER06RD19""}","","","","","","","","","","","","",""
"","instructions","5","131602","0.0-4.0","FL","9hgljjcs6a","1440","900","de","ER06RD19","NA","","","[{""page_index"":0,""viewing_time"":3251},{""page_index"":1,""viewing_time"":14418}]","instructions","","","","","","","","","",""
"","resize","6","201646","0.0-5.0","FL","9hgljjcs6a","1440","900","de","ER06RD19","","","","","","","426","2.7047619047619045","","","","","","",""
"","image-keyboard-response","7","201829","0.0-6.0-0.0","FL","9hgljjcs6a","1440","900","de","ER06RD19","null","","","","","","","","learning/Slide1.JPG","null","","","","",""
"","html-keyboard-response","8","202991","0.0-6.0-1.0","FL","9hgljjcs6a","1440","900","de","ER06RD19","null","","","","learningBlock1","","","","That was a tob.","null","","","","",""
"","html-keyboard-response","9","203994","0.0-6.0-2.0","FL","9hgljjcs6a","1440","900","de","ER06RD19","null","","","","learningBlock1","","","","<div style=""font-size:60px;""> </div>","null","FL","learning/Slide1.JPG","That was a tob.","",""
"","image-keyboard-response","10","204175","0.0-6.0-0.1","FL","9hgljjcs6a","1440","900","de","ER06RD19","null","","","","","","","","learning/Slide2.JPG","null","","","","",""
"","html-keyboard-response","11","205329","0.0-6.0-1.1","FL","9hgljjcs6a","1440","900","de","ER06RD19","null","","","","learningBlock1","","","","That was a wug.","null","","","","",""
"","html-keyboard-response","12","206334","0.0-6.0-2.1","FL","9hgljjcs6a","1440","900","de","ER06RD19","null","","","","learningBlock1","","","","<div style=""font-size:60px;""> </div>","null","FL","learning/Slide2.JPG","That was a wug.","",""
"","image-keyboard-response","13","206513","0.0-6.0-0.2","FL","9hgljjcs6a","1440","900","de","ER06RD19","null","","","","","","","","learning/Slide3.JPG","null","","","","",""
"","html-keyboard-response","14","207670","0.0-6.0-1.2","FL","9hgljjcs6a","1440","900","de","ER06RD19","null","","","","learningBlock1","","","","That was a bim.","null","","","","",""
"","html-keyboard-response","15","208672","0.0-6.0-2.2","FL","9hgljjcs6a","1440","900","de","ER06RD19","null","","","","learningBlock1","","","","<div style=""font-size:60px;""> </div>","null","FL","learning/Slide3.JPG","That was a bim.","",""
"","image-keyboard-response","16","208852","0.0-6.0-0.3","FL","9hgljjcs6a","1440","900","de","ER06RD19","null","","","","","","","","learning/Slide4.JPG","null","","","","",""
"","html-keyboard-response","17","210013","0.0-6.0-1.3","FL","9hgljjcs6a","1440","900","de","ER06RD19","null","","","","learningBlock1","","","","That was a dep.","null","","","","",""
"","html-keyboard-response","18","211018","0.0-6.0-2.3","FL","9hgljjcs6a","1440","900","de","ER06RD19","null","","","","learningBlock1","","","","<div style=""font-size:60px;""> </div>","null","FL","learning/Slide4.JPG","That was a dep.","",""
"","image-keyboard-response","19","211196","0.0-6.0-0.4","FL","9hgljjcs6a","1440","900","de","ER06RD19","null","","","","","","","","learning/Slide5.JPG","null","","","","",""
"","html-keyboard-response","20","212353","0.0-6.0-1.4","FL","9hgljjcs6a","1440","900","de","ER06RD19","null","","","","learningBlock1","","","","That was a wug.","null","","","","",""
"","html-keyboard-response","21","213359","0.0-6.0-2.4","FL","9hgljjcs6a","1440","900","de","ER06RD19","null","","","","learningBlock1","","","","<div style=""font-size:60px;""> </div>","null","FL","learning/Slide5.JPG","That was a wug.","",""
"","image-keyboard-response","22","213537","0.0-6.0-0.5","FL","9hgljjcs6a","1440","900","de","ER06RD19","null","","","","","","","","learning/Slide6.JPG","null","","","","",""
"","html-keyboard-response","23","214694","0.0-6.0-1.5","FL","9hgljjcs6a","1440","900","de","ER06RD19","null","","","","learningBlock1","","","","That was a dep.","null","","","","",""
"","html-keyboard-response","24","215697","0.0-6.0-2.5","FL","9hgljjcs6a","1440","900","de","ER06RD19","null","","","","learningBlock1","","","","<div style=""font-size:60px;""> </div>","null","FL","learning/Slide6.JPG","That was a dep.","",""
"","image-keyboard-response","25","215876","0.0-6.0-0.6","FL","9hgljjcs6a","1440","900","de","ER06RD19","null","","","","","","","","learning/Slide7.JPG","null","","","","",""
"","html-keyboard-response","26","217033","0.0-6.0-1.6","FL","9hgljjcs6a","1440","900","de","ER06RD19","null","","","","learningBlock1","","","","That was a wug.","null","","","","",""
"","html-keyboard-response","27","218040","0.0-6.0-2.6","FL","9hgljjcs6a","1440","900","de","ER06RD19","null","","","","learningBlock1","","","","<div style=""font-size:60px;""> </div>","null","FL","learning/Slide7.JPG","That was a wug.","",""
"","image-keyboard-response","28","218216","0.0-6.0-0.7","FL","9hgljjcs6a","1440","900","de","ER06RD19","null","","","","","","","","learning/Slide8.JPG","null","","","","",""
"","html-keyboard-response","29","219369","0.0-6.0-1.7","FL","9hgljjcs6a","1440","900","de","ER06RD19","null","","","","learningBlock1","","","","That was a bim.","null","","","","",""
"","html-keyboard-response","30","220375","0.0-6.0-2.7","FL","9hgljjcs6a","1440","900","de","ER06RD19","null","","","","learningBlock1","","","","<div style=""font-size:60px;""> </div>","null","FL","learning/Slide8.JPG","That was a bim.","",""
"","image-keyboard-response","31","220557","0.0-6.0-0.8","FL","9hgljjcs6a","1440","900","de","ER06RD19","null","","","","","","","","learning/Slide9.JPG","null","","","","",""
"","html-keyboard-response","32","221714","0.0-6.0-1.8","FL","9hgljjcs6a","1440","900","de","ER06RD19","null","","","","learningBlock1","","","","That was a wug.","null","","","","",""
"","html-keyboard-response","33","222716","0.0-6.0-2.8","FL","9hgljjcs6a","1440","900","de","ER06RD19","null","","","","learningBlock1","","","","<div style=""font-size:60px;""> </div>","null","FL","learning/Slide9.JPG","That was a wug.","",""
"","image-keyboard-response","34","222897","0.0-6.0-0.9","FL","9hgljjcs6a","1440","900","de","ER06RD19","null","","","","","","","","learning/Slide10.JPG","null","","","","",""
"","html-keyboard-response","35","224055","0.0-6.0-1.9","FL","9hgljjcs6a","1440","900","de","ER06RD19","null","","","","learningBlock1","","","","That was a dep.","null","","","","",""
"","html-keyboard-response","36","225060","0.0-6.0-2.9","FL","9hgljjcs6a","1440","900","de","ER06RD19","null","","","","learningBlock1","","","","<div style=""font-size:60px;""> </div>","null","FL","learning/Slide10.JPG","That was a dep.","",""
"","image-keyboard-response","37","225240","0.0-6.0-0.10","FL","9hgljjcs6a","1440","900","de","ER06RD19","null","","","","","","","","learning/Slide11.JPG","null","","","","",""
"","html-keyboard-response","38","226397","0.0-6.0-1.10","FL","9hgljjcs6a","1440","900","de","ER06RD19","null","","","","learningBlock1","","","","That was a tob.","null","","","","",""
"","html-keyboard-response","39","227400","0.0-6.0-2.10","FL","9hgljjcs6a","1440","900","de","ER06RD19","null","","","","learningBlock1","","","","<div style=""font-size:60px;""> </div>","null","FL","learning/Slide11.JPG","That was a tob.","",""
"","image-keyboard-response","40","227581","0.0-6.0-0.11","FL","9hgljjcs6a","1440","900","de","ER06RD19","null","","","","","","","","learning/Slide12.JPG","null","","","","",""
"","html-keyboard-response","41","228735","0.0-6.0-1.11","FL","9hgljjcs6a","1440","900","de","ER06RD19","null","","","","learningBlock1","","","","That was a dep.","null","","","","",""
"","html-keyboard-response","42","229737","0.0-6.0-2.11","FL","9hgljjcs6a","1440","900","de","ER06RD19","null","","","","learningBlock1","","","","<div style=""font-size:60px;""> </div>","null","FL","learning/Slide12.JPG","That was a dep.","",""
"","image-keyboard-response","43","229914","0.0-6.0-0.12","FL","9hgljjcs6a","1440","900","de","ER06RD19","null","","","","","","","","learning/Slide13.JPG","null","","","","",""
"","html-keyboard-response","44","231073","0.0-6.0-1.12","FL","9hgljjcs6a","1440","900","de","ER06RD19","null","","","","learningBlock1","","","","That was a bim.","null","","","","",""
"","html-keyboard-response","45","232078","0.0-6.0-2.12","FL","9hgljjcs6a","1440","900","de","ER06RD19","null","","","","learningBlock1","","","","<div style=""font-size:60px;""> </div>","null","FL","learning/Slide13.JPG","That was a bim.","",""
"","image-keyboard-response","46","232260","0.0-6.0-0.13","FL","9hgljjcs6a","1440","900","de","ER06RD19","null","","","","","","","","learning/Slide14.JPG","null","","","","",""
"","html-keyboard-response","47","233414","0.0-6.0-1.13","FL","9hgljjcs6a","1440","900","de","ER06RD19","null","","","","learningBlock1","","","","That was a wug.","null","","","","",""
"","html-keyboard-response","48","234420","0.0-6.0-2.13","FL","9hgljjcs6a","1440","900","de","ER06RD19","null","","","","learningBlock1","","","","<div style=""font-size:60px;""> </div>","null","FL","learning/Slide14.JPG","That was a wug.","",""
"","image-keyboard-response","49","234598","0.0-6.0-0.14","FL","9hgljjcs6a","1440","900","de","ER06RD19","null","","","","","","","","learning/Slide15.JPG","null","","","","",""
"","html-keyboard-response","50","235753","0.0-6.0-1.14","FL","9hgljjcs6a","1440","900","de","ER06RD19","null","","","","learningBlock1","","","","That was a tob.","null","","","","",""
"","html-keyboard-response","51","236757","0.0-6.0-2.14","FL","9hgljjcs6a","1440","900","de","ER06RD19","null","","","","learningBlock1","","","","<div style=""font-size:60px;""> </div>","null","FL","learning/Slide15.JPG","That was a tob.","",""
"","image-keyboard-response","52","236938","0.0-6.0-0.15","FL","9hgljjcs6a","1440","900","de","ER06RD19","null","","","","","","","","learning/Slide16.JPG","null","","","","",""
"","html-keyboard-response","53","238099","0.0-6.0-1.15","FL","9hgljjcs6a","1440","900","de","ER06RD19","null","","","","learningBlock1","","","","That was a dep.","null","","","","",""
"","html-keyboard-response","54","239102","0.0-6.0-2.15","FL","9hgljjcs6a","1440","900","de","ER06RD19","null","","","","learningBlock1","","","","<div style=""font-size:60px;""> </div>","null","FL","learning/Slide16.JPG","That was a dep.","",""
"","image-keyboard-response","55","239282","0.0-6.0-0.16","FL","9hgljjcs6a","1440","900","de","ER06RD19","null","","","","","","","","learning/Slide17.JPG","null","","","","",""
"","html-keyboard-response","56","240438","0.0-6.0-1.16","FL","9hgljjcs6a","1440","900","de","ER06RD19","null","","","","learningBlock1","","","","That was a bim.","null","","","","",""
"","html-keyboard-response","57","241444","0.0-6.0-2.16","FL","9hgljjcs6a","1440","900","de","ER06RD19","null","","","","learningBlock1","","","","<div style=""font-size:60px;""> </div>","null","FL","learning/Slide17.JPG","That was a bim.","",""
"","image-keyboard-response","58","241623","0.0-6.0-0.17","FL","9hgljjcs6a","1440","900","de","ER06RD19","null","","","","","","","","learning/Slide18.JPG","null","","","","",""
"","html-keyboard-response","59","242779","0.0-6.0-1.17","FL","9hgljjcs6a","1440","900","de","ER06RD19","null","","","","learningBlock1","","","","That was a tob.","null","","","","",""
"","html-keyboard-response","60","243782","0.0-6.0-2.17","FL","9hgljjcs6a","1440","900","de","ER06RD19","null","","","","learningBlock1","","","","<div style=""font-size:60px;""> </div>","null","FL","learning/Slide18.JPG","That was a tob.","",""
"","image-keyboard-response","61","243963","0.0-6.0-0.18","FL","9hgljjcs6a","1440","900","de","ER06RD19","null","","","","","","","","learning/Slide19.JPG","null","","","","",""
"","html-keyboard-response","62","245117","0.0-6.0-1.18","FL","9hgljjcs6a","1440","900","de","ER06RD19","null","","","","learningBlock1","","","","That was a wug.","null","","","","",""
"","html-keyboard-response","63","246123","0.0-6.0-2.18","FL","9hgljjcs6a","1440","900","de","ER06RD19","null","","","","learningBlock1","","","","<div style=""font-size:60px;""> </div>","null","FL","learning/Slide19.JPG","That was a wug.","",""
"","image-keyboard-response","64","246301","0.0-6.0-0.19","FL","9hgljjcs6a","1440","900","de","ER06RD19","null","","","","","","","","learning/Slide20.JPG","null","","","","",""
"","html-keyboard-response","65","247458","0.0-6.0-1.19","FL","9hgljjcs6a","1440","900","de","ER06RD19","null","","","","learningBlock1","","","","That was a bim.","null","","","","",""
"","html-keyboard-response","66","248460","0.0-6.0-2.19","FL","9hgljjcs6a","1440","900","de","ER06RD19","null","","","","learningBlock1","","","","<div style=""font-size:60px;""> </div>","null","FL","learning/Slide20.JPG","That was a bim.","",""
"","image-keyboard-response","67","248640","0.0-6.0-0.20","FL","9hgljjcs6a","1440","900","de","ER06RD19","null","","","","","","","","learning/Slide21.JPG","null","","","","",""
"","html-keyboard-response","68","249797","0.0-6.0-1.20","FL","9hgljjcs6a","1440","900","de","ER06RD19","null","","","","learningBlock1","","","","That was a dep.","null","","","","",""
"","html-keyboard-response","69","250798","0.0-6.0-2.20","FL","9hgljjcs6a","1440","900","de","ER06RD19","null","","","","learningBlock1","","","","<div style=""font-size:60px;""> </div>","null","FL","learning/Slide21.JPG","That was a dep.","",""
"","image-keyboard-response","70","250980","0.0-6.0-0.21","FL","9hgljjcs6a","1440","900","de","ER06RD19","null","","","","","","","","learning/Slide22.JPG","null","","","","",""
"","html-keyboard-response","71","252137","0.0-6.0-1.21","FL","9hgljjcs6a","1440","900","de","ER06RD19","null","","","","learningBlock1","","","","That was a bim.","null","","","","",""
"","html-keyboard-response","72","253139","0.0-6.0-2.21","FL","9hgljjcs6a","1440","900","de","ER06RD19","null","","","","learningBlock1","","","","<div style=""font-size:60px;""> </div>","null","FL","learning/Slide22.JPG","That was a bim.","",""
"","image-keyboard-response","73","253317","0.0-6.0-0.22","FL","9hgljjcs6a","1440","900","de","ER06RD19","null","","","","","","","","learning/Slide23.JPG","null","","","","",""
"","html-keyboard-response","74","254475","0.0-6.0-1.22","FL","9hgljjcs6a","1440","900","de","ER06RD19","null","","","","learningBlock1","","","","That was a tob.","null","","","","",""
"","html-keyboard-response","75","255477","0.0-6.0-2.22","FL","9hgljjcs6a","1440","900","de","ER06RD19","null","","","","learningBlock1","","","","<div style=""font-size:60px;""> </div>","null","FL","learning/Slide23.JPG","That was a tob.","",""
"","image-keyboard-response","76","255656","0.0-6.0-0.23","FL","9hgljjcs6a","1440","900","de","ER06RD19","null","","","","","","","","learning/Slide24.JPG","null","","","","",""
"","html-keyboard-response","77","256815","0.0-6.0-1.23","FL","9hgljjcs6a","1440","900","de","ER06RD19","null","","","","learningBlock1","","","","That was a wug.","null","","","","",""
"","html-keyboard-response","78","257819","0.0-6.0-2.23","FL","9hgljjcs6a","1440","900","de","ER06RD19","null","","","","learningBlock1","","","","<div style=""font-size:60px;""> </div>","null","FL","learning/Slide24.JPG","That was a wug.","",""
"","image-keyboard-response","79","258000","0.0-6.0-0.24","FL","9hgljjcs6a","1440","900","de","ER06RD19","null","","","","","","","","learning/Slide25.JPG","null","","","","",""
"","html-keyboard-response","80","259153","0.0-6.0-1.24","FL","9hgljjcs6a","1440","900","de","ER06RD19","null","","","","learningBlock1","","","","That was a dep.","null","","","","",""
"","html-keyboard-response","81","260159","0.0-6.0-2.24","FL","9hgljjcs6a","1440","900","de","ER06RD19","null","","","","learningBlock1","","","","<div style=""font-size:60px;""> </div>","null","FL","learning/Slide25.JPG","That was a dep.","",""
"","image-keyboard-response","82","260338","0.0-6.0-0.25","FL","9hgljjcs6a","1440","900","de","ER06RD19","null","","","","","","","","learning/Slide26.JPG","null","","","","",""
"","html-keyboard-response","83","261495","0.0-6.0-1.25","FL","9hgljjcs6a","1440","900","de","ER06RD19","null","","","","learningBlock1","","","","That was a wug.","null","","","","",""
"","html-keyboard-response","84","262498","0.0-6.0-2.25","FL","9hgljjcs6a","1440","900","de","ER06RD19","null","","","","learningBlock1","","","","<div style=""font-size:60px;""> </div>","null","FL","learning/Slide26.JPG","That was a wug.","",""
"","image-keyboard-response","85","262678","0.0-6.0-0.26","FL","9hgljjcs6a","1440","900","de","ER06RD19","null","","","","","","","","learning/Slide27.JPG","null","","","","",""
"","html-keyboard-response","86","263833","0.0-6.0-1.26","FL","9hgljjcs6a","1440","900","de","ER06RD19","null","","","","learningBlock1","","","","That was a bim.","null","","","","",""
"","html-keyboard-response","87","264838","0.0-6.0-2.26","FL","9hgljjcs6a","1440","900","de","ER06RD19","null","","","","learningBlock1","","","","<div style=""font-size:60px;""> </div>","null","FL","learning/Slide27.JPG","That was a bim.","",""
"","image-keyboard-response","88","265017","0.0-6.0-0.27","FL","9hgljjcs6a","1440","900","de","ER06RD19","null","","","","","","","","learning/Slide28.JPG","null","","","","",""
"","html-keyboard-response","89","266174","0.0-6.0-1.27","FL","9hgljjcs6a","1440","900","de","ER06RD19","null","","","","learningBlock1","","","","That was a dep.","null","","","","",""
"","html-keyboard-response","90","267176","0.0-6.0-2.27","FL","9hgljjcs6a","1440","900","de","ER06RD19","null","","","","learningBlock1","","","","<div style=""font-size:60px;""> </div>","null","FL","learning/Slide28.JPG","That was a dep.","",""
"","image-keyboard-response","91","267358","0.0-6.0-0.28","FL","9hgljjcs6a","1440","900","de","ER06RD19","null","","","","","","","","learning/Slide29.JPG","null","","","","",""
"","html-keyboard-response","92","268512","0.0-6.0-1.28","FL","9hgljjcs6a","1440","900","de","ER06RD19","null","","","","learningBlock1","","","","That was a tob.","null","","","","",""
"","html-keyboard-response","93","269513","0.0-6.0-2.28","FL","9hgljjcs6a","1440","900","de","ER06RD19","null","","","","learningBlock1","","","","<div style=""font-size:60px;""> </div>","null","FL","learning/Slide29.JPG","That was a tob.","",""
"","image-keyboard-response","94","269694","0.0-6.0-0.29","FL","9hgljjcs6a","1440","900","de","ER06RD19","null","","","","","","","","learning/Slide30.JPG","null","","","","",""
"","html-keyboard-response","95","270852","0.0-6.0-1.29","FL","9hgljjcs6a","1440","900","de","ER06RD19","null","","","","learningBlock1","","","","That was a dep.","null","","","","",""
"","html-keyboard-response","96","271856","0.0-6.0-2.29","FL","9hgljjcs6a","1440","900","de","ER06RD19","null","","","","learningBlock1","","","","<div style=""font-size:60px;""> </div>","null","FL","learning/Slide30.JPG","That was a dep.","",""
"","image-keyboard-response","97","272035","0.0-6.0-0.30","FL","9hgljjcs6a","1440","900","de","ER06RD19","null","","","","","","","","learning/Slide31.JPG","null","","","","",""
"","html-keyboard-response","98","273191","0.0-6.0-1.30","FL","9hgljjcs6a","1440","900","de","ER06RD19","null","","","","learningBlock1","","","","That was a wug.","null","","","","",""
"","html-keyboard-response","99","274197","0.0-6.0-2.30","FL","9hgljjcs6a","1440","900","de","ER06RD19","null","","","","learningBlock1","","","","<div style=""font-size:60px;""> </div>","null","FL","learning/Slide31.JPG","That was a wug.","",""
"","image-keyboard-response","100","274376","0.0-6.0-0.31","FL","9hgljjcs6a","1440","900","de","ER06RD19","null","","","","","","","","learning/Slide32.JPG","null","","","","",""
"","html-keyboard-response","101","275531","0.0-6.0-1.31","FL","9hgljjcs6a","1440","900","de","ER06RD19","null","","","","learningBlock1","","","","That was a tob.","null","","","","",""
"","html-keyboard-response","102","276534","0.0-6.0-2.31","FL","9hgljjcs6a","1440","900","de","ER06RD19","null","","","","learningBlock1","","","","<div style=""font-size:60px;""> </div>","null","FL","learning/Slide32.JPG","That was a tob.","",""
"","image-keyboard-response","103","276716","0.0-6.0-0.32","FL","9hgljjcs6a","1440","900","de","ER06RD19","null","","","","","","","","learning/Slide33.JPG","null","","","","",""
"","html-keyboard-response","104","277870","0.0-6.0-1.32","FL","9hgljjcs6a","1440","900","de","ER06RD19","null","","","","learningBlock1","","","","That was a bim.","null","","","","",""
"","html-keyboard-response","105","278875","0.0-6.0-2.32","FL","9hgljjcs6a","1440","900","de","ER06RD19","null","","","","learningBlock1","","","","<div style=""font-size:60px;""> </div>","null","FL","learning/Slide33.JPG","That was a bim.","",""
"","image-keyboard-response","106","279054","0.0-6.0-0.33","FL","9hgljjcs6a","1440","900","de","ER06RD19","null","","","","","","","","learning/Slide34.JPG","null","","","","",""
"","html-keyboard-response","107","280211","0.0-6.0-1.33","FL","9hgljjcs6a","1440","900","de","ER06RD19","null","","","","learningBlock1","","","","That was a tob.","null","","","","",""
"","html-keyboard-response","108","281214","0.0-6.0-2.33","FL","9hgljjcs6a","1440","900","de","ER06RD19","null","","","","learningBlock1","","","","<div style=""font-size:60px;""> </div>","null","FL","learning/Slide34.JPG","That was a tob.","",""
"","image-keyboard-response","109","281394","0.0-6.0-0.34","FL","9hgljjcs6a","1440","900","de","ER06RD19","null","","","","","","","","learning/Slide35.JPG","null","","","","",""
"","html-keyboard-response","110","282551","0.0-6.0-1.34","FL","9hgljjcs6a","1440","900","de","ER06RD19","null","","","","learningBlock1","","","","That was a bim.","null","","","","",""
"","html-keyboard-response","111","283558","0.0-6.0-2.34","FL","9hgljjcs6a","1440","900","de","ER06RD19","null","","","","learningBlock1","","","","<div style=""font-size:60px;""> </div>","null","FL","learning/Slide35.JPG","That was a bim.","",""
"","image-keyboard-response","112","283738","0.0-6.0-0.35","FL","9hgljjcs6a","1440","900","de","ER06RD19","null","","","","","","","","learning/Slide36.JPG","null","","","","",""
"","html-keyboard-response","113","284892","0.0-6.0-1.35","FL","9hgljjcs6a","1440","900","de","ER06RD19","null","","","","learningBlock1","","","","That was a dep.","null","","","","",""
"","html-keyboard-response","114","285897","0.0-6.0-2.35","FL","9hgljjcs6a","1440","900","de","ER06RD19","null","","","","learningBlock1","","","","<div style=""font-size:60px;""> </div>","null","FL","learning/Slide36.JPG","That was a dep.","",""
"","image-keyboard-response","115","286075","0.0-6.0-0.36","FL","9hgljjcs6a","1440","900","de","ER06RD19","null","","","","","","","","learning/Slide37.JPG","null","","","","",""
"","html-keyboard-response","116","287235","0.0-6.0-1.36","FL","9hgljjcs6a","1440","900","de","ER06RD19","null","","","","learningBlock1","","","","That was a tob.","null","","","","",""
"","html-keyboard-response","117","288238","0.0-6.0-2.36","FL","9hgljjcs6a","1440","900","de","ER06RD19","null","","","","learningBlock1","","","","<div style=""font-size:60px;""> </div>","null","FL","learning/Slide37.JPG","That was a tob.","",""
"","image-keyboard-response","118","288415","0.0-6.0-0.37","FL","9hgljjcs6a","1440","900","de","ER06RD19","null","","","","","","","","learning/Slide38.JPG","null","","","","",""
"","html-keyboard-response","119","289570","0.0-6.0-1.37","FL","9hgljjcs6a","1440","900","de","ER06RD19","null","","","","learningBlock1","","","","That was a wug.","null","","","","",""
"","html-keyboard-response","120","290571","0.0-6.0-2.37","FL","9hgljjcs6a","1440","900","de","ER06RD19","null","","","","learningBlock1","","","","<div style=""font-size:60px;""> </div>","null","FL","learning/Slide38.JPG","That was a wug.","",""
"","image-keyboard-response","121","290753","0.0-6.0-0.38","FL","9hgljjcs6a","1440","900","de","ER06RD19","null","","","","","","","","learning/Slide39.JPG","null","","","","",""
"","html-keyboard-response","122","291907","0.0-6.0-1.38","FL","9hgljjcs6a","1440","900","de","ER06RD19","null","","","","learningBlock1","","","","That was a bim.","null","","","","",""
"","html-keyboard-response","123","292913","0.0-6.0-2.38","FL","9hgljjcs6a","1440","900","de","ER06RD19","null","","","","learningBlock1","","","","<div style=""font-size:60px;""> </div>","null","FL","learning/Slide39.JPG","That was a bim.","",""
"","image-keyboard-response","124","293091","0.0-6.0-0.39","FL","9hgljjcs6a","1440","900","de","ER06RD19","null","","","","","","","","learning/Slide40.JPG","null","","","","",""
"","html-keyboard-response","125","294248","0.0-6.0-1.39","FL","9hgljjcs6a","1440","900","de","ER06RD19","null","","","","learningBlock1","","","","That was a tob.","null","","","","",""
"","html-keyboard-response","126","295250","0.0-6.0-2.39","FL","9hgljjcs6a","1440","900","de","ER06RD19","null","","","","learningBlock1","","","","<div style=""font-size:60px;""> </div>","null","FL","learning/Slide40.JPG","That was a tob.","",""
"","image-keyboard-response","127","295432","0.0-6.0-0.40","FL","9hgljjcs6a","1440","900","de","ER06RD19","null","","","","","","","","learning/Slide41.JPG","null","","","","",""
"","html-keyboard-response","128","296585","0.0-6.0-1.40","FL","9hgljjcs6a","1440","900","de","ER06RD19","null","","","","learningBlock1","","","","That was a bim.","null","","","","",""
"","html-keyboard-response","129","297592","0.0-6.0-2.40","FL","9hgljjcs6a","1440","900","de","ER06RD19","null","","","","learningBlock1","","","","<div style=""font-size:60px;""> </div>","null","FL","learning/Slide41.JPG","That was a bim.","",""
"","image-keyboard-response","130","297770","0.0-6.0-0.41","FL","9hgljjcs6a","1440","900","de","ER06RD19","null","","","","","","","","learning/Slide42.JPG","null","","","","",""
"","html-keyboard-response","131","298926","0.0-6.0-1.41","FL","9hgljjcs6a","1440","900","de","ER06RD19","null","","","","learningBlock1","","","","That was a dep.","null","","","","",""
"","html-keyboard-response","132","299930","0.0-6.0-2.41","FL","9hgljjcs6a","1440","900","de","ER06RD19","null","","","","learningBlock1","","","","<div style=""font-size:60px;""> </div>","null","FL","learning/Slide42.JPG","That was a dep.","",""
"","image-keyboard-response","133","300111","0.0-6.0-0.42","FL","9hgljjcs6a","1440","900","de","ER06RD19","null","","","","","","","","learning/Slide43.JPG","null","","","","",""
"","html-keyboard-response","134","301267","0.0-6.0-1.42","FL","9hgljjcs6a","1440","900","de","ER06RD19","null","","","","learningBlock1","","","","That was a wug.","null","","","","",""
"","html-keyboard-response","135","302271","0.0-6.0-2.42","FL","9hgljjcs6a","1440","900","de","ER06RD19","null","","","","learningBlock1","","","","<div style=""font-size:60px;""> </div>","null","FL","learning/Slide43.JPG","That was a wug.","",""
"","image-keyboard-response","136","302449","0.0-6.0-0.43","FL","9hgljjcs6a","1440","900","de","ER06RD19","null","","","","","","","","learning/Slide44.JPG","null","","","","",""
"","html-keyboard-response","137","303605","0.0-6.0-1.43","FL","9hgljjcs6a","1440","900","de","ER06RD19","null","","","","learningBlock1","","","","That was a bim.","null","","","","",""
"","html-keyboard-response","138","304608","0.0-6.0-2.43","FL","9hgljjcs6a","1440","900","de","ER06RD19","null","","","","learningBlock1","","","","<div style=""font-size:60px;""> </div>","null","FL","learning/Slide44.JPG","That was a bim.","",""
"","image-keyboard-response","139","304788","0.0-6.0-0.44","FL","9hgljjcs6a","1440","900","de","ER06RD19","null","","","","","","","","learning/Slide45.JPG","null","","","","",""
"","html-keyboard-response","140","305944","0.0-6.0-1.44","FL","9hgljjcs6a","1440","900","de","ER06RD19","null","","","","learningBlock1","","","","That was a wug.","null","","","","",""
"","html-keyboard-response","141","306950","0.0-6.0-2.44","FL","9hgljjcs6a","1440","900","de","ER06RD19","null","","","","learningBlock1","","","","<div style=""font-size:60px;""> </div>","null","FL","learning/Slide45.JPG","That was a wug.","",""
"","image-keyboard-response","142","307128","0.0-6.0-0.45","FL","9hgljjcs6a","1440","900","de","ER06RD19","null","","","","","","","","learning/Slide46.JPG","null","","","","",""
"","html-keyboard-response","143","308282","0.0-6.0-1.45","FL","9hgljjcs6a","1440","900","de","ER06RD19","null","","","","learningBlock1","","","","That was a dep.","null","","","","",""
"","html-keyboard-response","144","309288","0.0-6.0-2.45","FL","9hgljjcs6a","1440","900","de","ER06RD19","null","","","","learningBlock1","","","","<div style=""font-size:60px;""> </div>","null","FL","learning/Slide46.JPG","That was a dep.","",""
"","image-keyboard-response","145","309466","0.0-6.0-0.46","FL","9hgljjcs6a","1440","900","de","ER06RD19","null","","","","","","","","learning/Slide47.JPG","null","","","","",""
"","html-keyboard-response","146","310623","0.0-6.0-1.46","FL","9hgljjcs6a","1440","900","de","ER06RD19","null","","","","learningBlock1","","","","That was a tob.","null","","","","",""
"","html-keyboard-response","147","311629","0.0-6.0-2.46","FL","9hgljjcs6a","1440","900","de","ER06RD19","null","","","","learningBlock1","","","","<div style=""font-size:60px;""> </div>","null","FL","learning/Slide47.JPG","That was a tob.","",""
"","image-keyboard-response","148","311807","0.0-6.0-0.47","FL","9hgljjcs6a","1440","900","de","ER06RD19","null","","","","","","","","learning/Slide48.JPG","null","","","","",""
"","html-keyboard-response","149","312963","0.0-6.0-1.47","FL","9hgljjcs6a","1440","900","de","ER06RD19","null","","","","learningBlock1","","","","That was a bim.","null","","","","",""
"","html-keyboard-response","150","313967","0.0-6.0-2.47","FL","9hgljjcs6a","1440","900","de","ER06RD19","null","","","","learningBlock1","","","","<div style=""font-size:60px;""> </div>","null","FL","learning/Slide48.JPG","That was a bim.","",""
"","image-keyboard-response","151","314148","0.0-6.0-0.48","FL","9hgljjcs6a","1440","900","de","ER06RD19","null","","","","","","","","learning/Slide49.JPG","null","","","","",""
"","html-keyboard-response","152","315308","0.0-6.0-1.48","FL","9hgljjcs6a","1440","900","de","ER06RD19","null","","","","learningBlock1","","","","That was a dep.","null","","","","",""
"","html-keyboard-response","153","316311","0.0-6.0-2.48","FL","9hgljjcs6a","1440","900","de","ER06RD19","null","","","","learningBlock1","","","","<div style=""font-size:60px;""> </div>","null","FL","learning/Slide49.JPG","That was a dep.","",""
"","image-keyboard-response","154","316489","0.0-6.0-0.49","FL","9hgljjcs6a","1440","900","de","ER06RD19","null","","","","","","","","learning/Slide50.JPG","null","","","","",""
"","html-keyboard-response","155","317644","0.0-6.0-1.49","FL","9hgljjcs6a","1440","900","de","ER06RD19","null","","","","learningBlock1","","","","That was a tob.","null","","","","",""
"","html-keyboard-response","156","318646","0.0-6.0-2.49","FL","9hgljjcs6a","1440","900","de","ER06RD19","null","","","","learningBlock1","","","","<div style=""font-size:60px;""> </div>","null","FL","learning/Slide50.JPG","That was a tob.","",""
"","image-keyboard-response","157","318822","0.0-6.0-0.50","FL","9hgljjcs6a","1440","900","de","ER06RD19","null","","","","","","","","learning/Slide51.JPG","null","","","","",""
"","html-keyboard-response","158","319978","0.0-6.0-1.50","FL","9hgljjcs6a","1440","900","de","ER06RD19","null","","","","learningBlock1","","","","That was a bim.","null","","","","",""
"","html-keyboard-response","159","320985","0.0-6.0-2.50","FL","9hgljjcs6a","1440","900","de","ER06RD19","null","","","","learningBlock1","","","","<div style=""font-size:60px;""> </div>","null","FL","learning/Slide51.JPG","That was a bim.","",""
"","image-keyboard-response","160","321164","0.0-6.0-0.51","FL","9hgljjcs6a","1440","900","de","ER06RD19","null","","","","","","","","learning/Slide52.JPG","null","","","","",""
"","html-keyboard-response","161","322317","0.0-6.0-1.51","FL","9hgljjcs6a","1440","900","de","ER06RD19","null","","","","learningBlock1","","","","That was a wug.","null","","","","",""
"","html-keyboard-response","162","323323","0.0-6.0-2.51","FL","9hgljjcs6a","1440","900","de","ER06RD19","null","","","","learningBlock1","","","","<div style=""font-size:60px;""> </div>","null","FL","learning/Slide52.JPG","That was a wug.","",""
"","image-keyboard-response","163","323504","0.0-6.0-0.52","FL","9hgljjcs6a","1440","900","de","ER06RD19","null","","","","","","","","learning/Slide53.JPG","null","","","","",""
"","html-keyboard-response","164","324659","0.0-6.0-1.52","FL","9hgljjcs6a","1440","900","de","ER06RD19","null","","","","learningBlock1","","","","That was a tob.","null","","","","",""
"","html-keyboard-response","165","325661","0.0-6.0-2.52","FL","9hgljjcs6a","1440","900","de","ER06RD19","null","","","","learningBlock1","","","","<div style=""font-size:60px;""> </div>","null","FL","learning/Slide53.JPG","That was a tob.","",""
"","image-keyboard-response","166","325840","0.0-6.0-0.53","FL","9hgljjcs6a","1440","900","de","ER06RD19","null","","","","","","","","learning/Slide54.JPG","null","","","","",""
"","html-keyboard-response","167","326999","0.0-6.0-1.53","FL","9hgljjcs6a","1440","900","de","ER06RD19","null","","","","learningBlock1","","","","That was a dep.","null","","","","",""
"","html-keyboard-response","168","328003","0.0-6.0-2.53","FL","9hgljjcs6a","1440","900","de","ER06RD19","null","","","","learningBlock1","","","","<div style=""font-size:60px;""> </div>","null","FL","learning/Slide54.JPG","That was a dep.","",""
"","image-keyboard-response","169","328184","0.0-6.0-0.54","FL","9hgljjcs6a","1440","900","de","ER06RD19","null","","","","","","","","learning/Slide55.JPG","null","","","","",""
"","html-keyboard-response","170","329345","0.0-6.0-1.54","FL","9hgljjcs6a","1440","900","de","ER06RD19","null","","","","learningBlock1","","","","That was a bim.","null","","","","",""
"","html-keyboard-response","171","330349","0.0-6.0-2.54","FL","9hgljjcs6a","1440","900","de","ER06RD19","null","","","","learningBlock1","","","","<div style=""font-size:60px;""> </div>","null","FL","learning/Slide55.JPG","That was a bim.","",""
"","image-keyboard-response","172","330530","0.0-6.0-0.55","FL","9hgljjcs6a","1440","900","de","ER06RD19","null","","","","","","","","learning/Slide56.JPG","null","","","","",""
"","html-keyboard-response","173","331692","0.0-6.0-1.55","FL","9hgljjcs6a","1440","900","de","ER06RD19","null","","","","learningBlock1","","","","That was a tob.","null","","","","",""
"","html-keyboard-response","174","332694","0.0-6.0-2.55","FL","9hgljjcs6a","1440","900","de","ER06RD19","null","","","","learningBlock1","","","","<div style=""font-size:60px;""> </div>","null","FL","learning/Slide56.JPG","That was a tob.","",""
"","image-keyboard-response","175","332875","0.0-6.0-0.56","FL","9hgljjcs6a","1440","900","de","ER06RD19","null","","","","","","","","learning/Slide57.JPG","null","","","","",""
"","html-keyboard-response","176","334029","0.0-6.0-1.56","FL","9hgljjcs6a","1440","900","de","ER06RD19","null","","","","learningBlock1","","","","That was a dep.","null","","","","",""
"","html-keyboard-response","177","335035","0.0-6.0-2.56","FL","9hgljjcs6a","1440","900","de","ER06RD19","null","","","","learningBlock1","","","","<div style=""font-size:60px;""> </div>","null","FL","learning/Slide57.JPG","That was a dep.","",""
"","image-keyboard-response","178","335213","0.0-6.0-0.57","FL","9hgljjcs6a","1440","900","de","ER06RD19","null","","","","","","","","learning/Slide58.JPG","null","","","","",""
"","html-keyboard-response","179","336369","0.0-6.0-1.57","FL","9hgljjcs6a","1440","900","de","ER06RD19","null","","","","learningBlock1","","","","That was a wug.","null","","","","",""
"","html-keyboard-response","180","337373","0.0-6.0-2.57","FL","9hgljjcs6a","1440","900","de","ER06RD19","null","","","","learningBlock1","","","","<div style=""font-size:60px;""> </div>","null","FL","learning/Slide58.JPG","That was a wug.","",""
"","image-keyboard-response","181","337549","0.0-6.0-0.58","FL","9hgljjcs6a","1440","900","de","ER06RD19","null","","","","","","","","learning/Slide59.JPG","null","","","","",""
"","html-keyboard-response","182","338708","0.0-6.0-1.58","FL","9hgljjcs6a","1440","900","de","ER06RD19","null","","","","learningBlock1","","","","That was a dep.","null","","","","",""
"","html-keyboard-response","183","339710","0.0-6.0-2.58","FL","9hgljjcs6a","1440","900","de","ER06RD19","null","","","","learningBlock1","","","","<div style=""font-size:60px;""> </div>","null","FL","learning/Slide59.JPG","That was a dep.","",""
"","image-keyboard-response","184","339891","0.0-6.0-0.59","FL","9hgljjcs6a","1440","900","de","ER06RD19","null","","","","","","","","learning/Slide60.JPG","null","","","","",""
"","html-keyboard-response","185","341045","0.0-6.0-1.59","FL","9hgljjcs6a","1440","900","de","ER06RD19","null","","","","learningBlock1","","","","That was a wug.","null","","","","",""
"","html-keyboard-response","186","342049","0.0-6.0-2.59","FL","9hgljjcs6a","1440","900","de","ER06RD19","null","","","","learningBlock1","","","","<div style=""font-size:60px;""> </div>","null","FL","learning/Slide60.JPG","That was a wug.","",""
"","image-keyboard-response","187","342226","0.0-6.0-0.60","FL","9hgljjcs6a","1440","900","de","ER06RD19","null","","","","","","","","learning/Slide61.JPG","null","","","","",""
"","html-keyboard-response","188","343382","0.0-6.0-1.60","FL","9hgljjcs6a","1440","900","de","ER06RD19","null","","","","learningBlock1","","","","That was a bim.","null","","","","",""
"","html-keyboard-response","189","344386","0.0-6.0-2.60","FL","9hgljjcs6a","1440","900","de","ER06RD19","null","","","","learningBlock1","","","","<div style=""font-size:60px;""> </div>","null","FL","learning/Slide61.JPG","That was a bim.","",""
"","image-keyboard-response","190","344566","0.0-6.0-0.61","FL","9hgljjcs6a","1440","900","de","ER06RD19","null","","","","","","","","learning/Slide62.JPG","null","","","","",""
"","html-keyboard-response","191","345727","0.0-6.0-1.61","FL","9hgljjcs6a","1440","900","de","ER06RD19","null","","","","learningBlock1","","","","That was a dep.","null","","","","",""
"","html-keyboard-response","192","346731","0.0-6.0-2.61","FL","9hgljjcs6a","1440","900","de","ER06RD19","null","","","","learningBlock1","","","","<div style=""font-size:60px;""> </div>","null","FL","learning/Slide62.JPG","That was a dep.","",""
"","image-keyboard-response","193","346909","0.0-6.0-0.62","FL","9hgljjcs6a","1440","900","de","ER06RD19","null","","","","","","","","learning/Slide63.JPG","null","","","","",""
"","html-keyboard-response","194","348066","0.0-6.0-1.62","FL","9hgljjcs6a","1440","900","de","ER06RD19","null","","","","learningBlock1","","","","That was a bim.","null","","","","",""
"","html-keyboard-response","195","349072","0.0-6.0-2.62","FL","9hgljjcs6a","1440","900","de","ER06RD19","null","","","","learningBlock1","","","","<div style=""font-size:60px;""> </div>","null","FL","learning/Slide63.JPG","That was a bim.","",""
"","image-keyboard-response","196","349250","0.0-6.0-0.63","FL","9hgljjcs6a","1440","900","de","ER06RD19","null","","","","","","","","learning/Slide64.JPG","null","","","","",""
"","html-keyboard-response","197","350406","0.0-6.0-1.63","FL","9hgljjcs6a","1440","900","de","ER06RD19","null","","","","learningBlock1","","","","That was a tob.","null","","","","",""
"","html-keyboard-response","198","351409","0.0-6.0-2.63","FL","9hgljjcs6a","1440","900","de","ER06RD19","null","","","","learningBlock1","","","","<div style=""font-size:60px;""> </div>","null","FL","learning/Slide64.JPG","That was a tob.","",""
"","image-keyboard-response","199","351590","0.0-6.0-0.64","FL","9hgljjcs6a","1440","900","de","ER06RD19","null","","","","","","","","learning/Slide65.JPG","null","","","","",""
"","html-keyboard-response","200","352745","0.0-6.0-1.64","FL","9hgljjcs6a","1440","900","de","ER06RD19","null","","","","learningBlock1","","","","That was a wug.","null","","","","",""
"","html-keyboard-response","201","353751","0.0-6.0-2.64","FL","9hgljjcs6a","1440","900","de","ER06RD19","null","","","","learningBlock1","","","","<div style=""font-size:60px;""> </div>","null","FL","learning/Slide65.JPG","That was a wug.","",""
"","image-keyboard-response","202","353929","0.0-6.0-0.65","FL","9hgljjcs6a","1440","900","de","ER06RD19","null","","","","","","","","learning/Slide66.JPG","null","","","","",""
"","html-keyboard-response","203","355085","0.0-6.0-1.65","FL","9hgljjcs6a","1440","900","de","ER06RD19","null","","","","learningBlock1","","","","That was a dep.","null","","","","",""
"","html-keyboard-response","204","356089","0.0-6.0-2.65","FL","9hgljjcs6a","1440","900","de","ER06RD19","null","","","","learningBlock1","","","","<div style=""font-size:60px;""> </div>","null","FL","learning/Slide66.JPG","That was a dep.","",""
"","image-keyboard-response","205","356270","0.0-6.0-0.66","FL","9hgljjcs6a","1440","900","de","ER06RD19","null","","","","","","","","learning/Slide67.JPG","null","","","","",""
"","html-keyboard-response","206","357424","0.0-6.0-1.66","FL","9hgljjcs6a","1440","900","de","ER06RD19","null","","","","learningBlock1","","","","That was a tob.","null","","","","",""
"","html-keyboard-response","207","358430","0.0-6.0-2.66","FL","9hgljjcs6a","1440","900","de","ER06RD19","null","","","","learningBlock1","","","","<div style=""font-size:60px;""> </div>","null","FL","learning/Slide67.JPG","That was a tob.","",""
"","image-keyboard-response","208","358608","0.0-6.0-0.67","FL","9hgljjcs6a","1440","900","de","ER06RD19","null","","","","","","","","learning/Slide68.JPG","null","","","","",""
"","html-keyboard-response","209","359763","0.0-6.0-1.67","FL","9hgljjcs6a","1440","900","de","ER06RD19","null","","","","learningBlock1","","","","That was a wug.","null","","","","",""
"","html-keyboard-response","210","360768","0.0-6.0-2.67","FL","9hgljjcs6a","1440","900","de","ER06RD19","null","","","","learningBlock1","","","","<div style=""font-size:60px;""> </div>","null","FL","learning/Slide68.JPG","That was a wug.","",""
"","image-keyboard-response","211","360944","0.0-6.0-0.68","FL","9hgljjcs6a","1440","900","de","ER06RD19","null","","","","","","","","learning/Slide69.JPG","null","","","","",""
"","html-keyboard-response","212","362103","0.0-6.0-1.68","FL","9hgljjcs6a","1440","900","de","ER06RD19","null","","","","learningBlock1","","","","That was a tob.","null","","","","",""
"","html-keyboard-response","213","363109","0.0-6.0-2.68","FL","9hgljjcs6a","1440","900","de","ER06RD19","null","","","","learningBlock1","","","","<div style=""font-size:60px;""> </div>","null","FL","learning/Slide69.JPG","That was a tob.","",""
"","image-keyboard-response","214","363287","0.0-6.0-0.69","FL","9hgljjcs6a","1440","900","de","ER06RD19","null","","","","","","","","learning/Slide70.JPG","null","","","","",""
"","html-keyboard-response","215","364442","0.0-6.0-1.69","FL","9hgljjcs6a","1440","900","de","ER06RD19","null","","","","learningBlock1","","","","That was a dep.","null","","","","",""
"","html-keyboard-response","216","365447","0.0-6.0-2.69","FL","9hgljjcs6a","1440","900","de","ER06RD19","null","","","","learningBlock1","","","","<div style=""font-size:60px;""> </div>","null","FL","learning/Slide70.JPG","That was a dep.","",""
"","image-keyboard-response","217","365626","0.0-6.0-0.70","FL","9hgljjcs6a","1440","900","de","ER06RD19","null","","","","","","","","learning/Slide71.JPG","null","","","","",""
"","html-keyboard-response","218","366781","0.0-6.0-1.70","FL","9hgljjcs6a","1440","900","de","ER06RD19","null","","","","learningBlock1","","","","That was a wug.","null","","","","",""
"","html-keyboard-response","219","367788","0.0-6.0-2.70","FL","9hgljjcs6a","1440","900","de","ER06RD19","null","","","","learningBlock1","","","","<div style=""font-size:60px;""> </div>","null","FL","learning/Slide71.JPG","That was a wug.","",""
"","image-keyboard-response","220","367966","0.0-6.0-0.71","FL","9hgljjcs6a","1440","900","de","ER06RD19","null","","","","","","","","learning/Slide72.JPG","null","","","","",""
"","html-keyboard-response","221","369122","0.0-6.0-1.71","FL","9hgljjcs6a","1440","900","de","ER06RD19","null","","","","learningBlock1","","","","That was a bim.","null","","","","",""
"","html-keyboard-response","222","370126","0.0-6.0-2.71","FL","9hgljjcs6a","1440","900","de","ER06RD19","null","","","","learningBlock1","","","","<div style=""font-size:60px;""> </div>","null","FL","learning/Slide72.JPG","That was a bim.","",""
"","image-keyboard-response","223","370303","0.0-6.0-0.72","FL","9hgljjcs6a","1440","900","de","ER06RD19","null","","","","","","","","learning/Slide73.JPG","null","","","","",""
"","html-keyboard-response","224","371459","0.0-6.0-1.72","FL","9hgljjcs6a","1440","900","de","ER06RD19","null","","","","learningBlock1","","","","That was a wug.","null","","","","",""
"","html-keyboard-response","225","372460","0.0-6.0-2.72","FL","9hgljjcs6a","1440","900","de","ER06RD19","null","","","","learningBlock1","","","","<div style=""font-size:60px;""> </div>","null","FL","learning/Slide73.JPG","That was a wug.","",""
"","image-keyboard-response","226","372641","0.0-6.0-0.73","FL","9hgljjcs6a","1440","900","de","ER06RD19","null","","","","","","","","learning/Slide74.JPG","null","","","","",""
"","html-keyboard-response","227","373794","0.0-6.0-1.73","FL","9hgljjcs6a","1440","900","de","ER06RD19","null","","","","learningBlock1","","","","That was a dep.","null","","","","",""
"","html-keyboard-response","228","374799","0.0-6.0-2.73","FL","9hgljjcs6a","1440","900","de","ER06RD19","null","","","","learningBlock1","","","","<div style=""font-size:60px;""> </div>","null","FL","learning/Slide74.JPG","That was a dep.","",""
"","image-keyboard-response","229","374978","0.0-6.0-0.74","FL","9hgljjcs6a","1440","900","de","ER06RD19","null","","","","","","","","learning/Slide75.JPG","null","","","","",""
"","html-keyboard-response","230","376133","0.0-6.0-1.74","FL","9hgljjcs6a","1440","900","de","ER06RD19","null","","","","learningBlock1","","","","That was a tob.","null","","","","",""
"","html-keyboard-response","231","377138","0.0-6.0-2.74","FL","9hgljjcs6a","1440","900","de","ER06RD19","null","","","","learningBlock1","","","","<div style=""font-size:60px;""> </div>","null","FL","learning/Slide75.JPG","That was a tob.","",""
"","image-keyboard-response","232","377318","0.0-6.0-0.75","FL","9hgljjcs6a","1440","900","de","ER06RD19","null","","","","","","","","learning/Slide76.JPG","null","","","","",""
"","html-keyboard-response","233","378480","0.0-6.0-1.75","FL","9hgljjcs6a","1440","900","de","ER06RD19","null","","","","learningBlock1","","","","That was a bim.","null","","","","",""
"","html-keyboard-response","234","379483","0.0-6.0-2.75","FL","9hgljjcs6a","1440","900","de","ER06RD19","null","","","","learningBlock1","","","","<div style=""font-size:60px;""> </div>","null","FL","learning/Slide76.JPG","That was a bim.","",""
"","image-keyboard-response","235","379663","0.0-6.0-0.76","FL","9hgljjcs6a","1440","900","de","ER06RD19","null","","","","","","","","learning/Slide77.JPG","null","","","","",""
"","html-keyboard-response","236","380816","0.0-6.0-1.76","FL","9hgljjcs6a","1440","900","de","ER06RD19","null","","","","learningBlock1","","","","That was a tob.","null","","","","",""
"","html-keyboard-response","237","381817","0.0-6.0-2.76","FL","9hgljjcs6a","1440","900","de","ER06RD19","null","","","","learningBlock1","","","","<div style=""font-size:60px;""> </div>","null","FL","learning/Slide77.JPG","That was a tob.","",""
"","image-keyboard-response","238","381996","0.0-6.0-0.77","FL","9hgljjcs6a","1440","900","de","ER06RD19","null","","","","","","","","learning/Slide78.JPG","null","","","","",""
"","html-keyboard-response","239","383152","0.0-6.0-1.77","FL","9hgljjcs6a","1440","900","de","ER06RD19","null","","","","learningBlock1","","","","That was a wug.","null","","","","",""
"","html-keyboard-response","240","384158","0.0-6.0-2.77","FL","9hgljjcs6a","1440","900","de","ER06RD19","null","","","","learningBlock1","","","","<div style=""font-size:60px;""> </div>","null","FL","learning/Slide78.JPG","That was a wug.","",""
"","image-keyboard-response","241","384335","0.0-6.0-0.78","FL","9hgljjcs6a","1440","900","de","ER06RD19","null","","","","","","","","learning/Slide79.JPG","null","","","","",""
"","html-keyboard-response","242","385493","0.0-6.0-1.78","FL","9hgljjcs6a","1440","900","de","ER06RD19","null","","","","learningBlock1","","","","That was a bim.","null","","","","",""
"","html-keyboard-response","243","386496","0.0-6.0-2.78","FL","9hgljjcs6a","1440","900","de","ER06RD19","null","","","","learningBlock1","","","","<div style=""font-size:60px;""> </div>","null","FL","learning/Slide79.JPG","That was a bim.","",""
"","image-keyboard-response","244","386674","0.0-6.0-0.79","FL","9hgljjcs6a","1440","900","de","ER06RD19","null","","","","","","","","learning/Slide80.JPG","null","","","","",""
"","html-keyboard-response","245","387830","0.0-6.0-1.79","FL","9hgljjcs6a","1440","900","de","ER06RD19","null","","","","learningBlock1","","","","That was a tob.","null","","","","",""
"","html-keyboard-response","246","388834","0.0-6.0-2.79","FL","9hgljjcs6a","1440","900","de","ER06RD19","null","","","","learningBlock1","","","","<div style=""font-size:60px;""> </div>","null","FL","learning/Slide80.JPG","That was a tob.","",""
"","instructions","247","396154","0.0-7.0","FL","9hgljjcs6a","1440","900","de","ER06RD19","NA","","","[{""page_index"":0,""viewing_time"":7320}]","instructions","","","","","","","","","",""
"","image-keyboard-response","248","396335","0.0-8.0-0.0","FL","9hgljjcs6a","1440","900","de","ER06RD19","null","","","","","","","","learning/Slide81.JPG","null","","","","",""
"","html-keyboard-response","249","397495","0.0-8.0-1.0","FL","9hgljjcs6a","1440","900","de","ER06RD19","null","","","","learningBlock2","","","","That was a wug.","null","","","","",""
"","html-keyboard-response","250","398496","0.0-8.0-2.0","FL","9hgljjcs6a","1440","900","de","ER06RD19","null","","","","learningBlock2","","","","<div style=""font-size:60px;""> </div>","null","FL","learning/Slide81.JPG","That was a wug.","",""
"","image-keyboard-response","251","398675","0.0-8.0-0.1","FL","9hgljjcs6a","1440","900","de","ER06RD19","null","","","","","","","","learning/Slide82.JPG","null","","","","",""
"","html-keyboard-response","252","399832","0.0-8.0-1.1","FL","9hgljjcs6a","1440","900","de","ER06RD19","null","","","","learningBlock2","","","","That was a bim.","null","","","","",""
"","html-keyboard-response","253","400834","0.0-8.0-2.1","FL","9hgljjcs6a","1440","900","de","ER06RD19","null","","","","learningBlock2","","","","<div style=""font-size:60px;""> </div>","null","FL","learning/Slide82.JPG","That was a bim.","",""
"","image-keyboard-response","254","401015","0.0-8.0-0.2","FL","9hgljjcs6a","1440","900","de","ER06RD19","null","","","","","","","","learning/Slide83.JPG","null","","","","",""
"","html-keyboard-response","255","402170","0.0-8.0-1.2","FL","9hgljjcs6a","1440","900","de","ER06RD19","null","","","","learningBlock2","","","","That was a wug.","null","","","","",""
"","html-keyboard-response","256","403176","0.0-8.0-2.2","FL","9hgljjcs6a","1440","900","de","ER06RD19","null","","","","learningBlock2","","","","<div style=""font-size:60px;""> </div>","null","FL","learning/Slide83.JPG","That was a wug.","",""
"","image-keyboard-response","257","403356","0.0-8.0-0.3","FL","9hgljjcs6a","1440","900","de","ER06RD19","null","","","","","","","","learning/Slide84.JPG","null","","","","",""
"","html-keyboard-response","258","404512","0.0-8.0-1.3","FL","9hgljjcs6a","1440","900","de","ER06RD19","null","","","","learningBlock2","","","","That was a dep.","null","","","","",""
"","html-keyboard-response","259","405514","0.0-8.0-2.3","FL","9hgljjcs6a","1440","900","de","ER06RD19","null","","","","learningBlock2","","","","<div style=""font-size:60px;""> </div>","null","FL","learning/Slide84.JPG","That was a dep.","",""
"","image-keyboard-response","260","405695","0.0-8.0-0.4","FL","9hgljjcs6a","1440","900","de","ER06RD19","null","","","","","","","","learning/Slide85.JPG","null","","","","",""
"","html-keyboard-response","261","406849","0.0-8.0-1.4","FL","9hgljjcs6a","1440","900","de","ER06RD19","null","","","","learningBlock2","","","","That was a bim.","null","","","","",""
"","html-keyboard-response","262","407853","0.0-8.0-2.4","FL","9hgljjcs6a","1440","900","de","ER06RD19","null","","","","learningBlock2","","","","<div style=""font-size:60px;""> </div>","null","FL","learning/Slide85.JPG","That was a bim.","",""
"","image-keyboard-response","263","408032","0.0-8.0-0.5","FL","9hgljjcs6a","1440","900","de","ER06RD19","null","","","","","","","","learning/Slide86.JPG","null","","","","",""
"","html-keyboard-response","264","409185","0.0-8.0-1.5","FL","9hgljjcs6a","1440","900","de","ER06RD19","null","","","","learningBlock2","","","","That was a tob.","null","","","","",""
"","html-keyboard-response","265","410190","0.0-8.0-2.5","FL","9hgljjcs6a","1440","900","de","ER06RD19","null","","","","learningBlock2","","","","<div style=""font-size:60px;""> </div>","null","FL","learning/Slide86.JPG","That was a tob.","",""
"","image-keyboard-response","266","410367","0.0-8.0-0.6","FL","9hgljjcs6a","1440","900","de","ER06RD19","null","","","","","","","","learning/Slide87.JPG","null","","","","",""
"","html-keyboard-response","267","411519","0.0-8.0-1.6","FL","9hgljjcs6a","1440","900","de","ER06RD19","null","","","","learningBlock2","","","","That was a wug.","null","","","","",""
"","html-keyboard-response","268","412525","0.0-8.0-2.6","FL","9hgljjcs6a","1440","900","de","ER06RD19","null","","","","learningBlock2","","","","<div style=""font-size:60px;""> </div>","null","FL","learning/Slide87.JPG","That was a wug.","",""
"","image-keyboard-response","269","412707","0.0-8.0-0.7","FL","9hgljjcs6a","1440","900","de","ER06RD19","null","","","","","","","","learning/Slide88.JPG","null","","","","",""
"","html-keyboard-response","270","413861","0.0-8.0-1.7","FL","9hgljjcs6a","1440","900","de","ER06RD19","null","","","","learningBlock2","","","","That was a tob.","null","","","","",""
"","html-keyboard-response","271","414866","0.0-8.0-2.7","FL","9hgljjcs6a","1440","900","de","ER06RD19","null","","","","learningBlock2","","","","<div style=""font-size:60px;""> </div>","null","FL","learning/Slide88.JPG","That was a tob.","",""
"","image-keyboard-response","272","415046","0.0-8.0-0.8","FL","9hgljjcs6a","1440","900","de","ER06RD19","null","","","","","","","","learning/Slide89.JPG","null","","","","",""
"","html-keyboard-response","273","416203","0.0-8.0-1.8","FL","9hgljjcs6a","1440","900","de","ER06RD19","null","","","","learningBlock2","","","","That was a bim.","null","","","","",""
"","html-keyboard-response","274","417205","0.0-8.0-2.8","FL","9hgljjcs6a","1440","900","de","ER06RD19","null","","","","learningBlock2","","","","<div style=""font-size:60px;""> </div>","null","FL","learning/Slide89.JPG","That was a bim.","",""
"","image-keyboard-response","275","417383","0.0-8.0-0.9","FL","9hgljjcs6a","1440","900","de","ER06RD19","null","","","","","","","","learning/Slide90.JPG","null","","","","",""
"","html-keyboard-response","276","418540","0.0-8.0-1.9","FL","9hgljjcs6a","1440","900","de","ER06RD19","null","","","","learningBlock2","","","","That was a dep.","null","","","","",""
"","html-keyboard-response","277","419546","0.0-8.0-2.9","FL","9hgljjcs6a","1440","900","de","ER06RD19","null","","","","learningBlock2","","","","<div style=""font-size:60px;""> </div>","null","FL","learning/Slide90.JPG","That was a dep.","",""
"","image-keyboard-response","278","419725","0.0-8.0-0.10","FL","9hgljjcs6a","1440","900","de","ER06RD19","null","","","","","","","","learning/Slide91.JPG","null","","","","",""
"","html-keyboard-response","279","420882","0.0-8.0-1.10","FL","9hgljjcs6a","1440","900","de","ER06RD19","null","","","","learningBlock2","","","","That was a wug.","null","","","","",""
"","html-keyboard-response","280","421884","0.0-8.0-2.10","FL","9hgljjcs6a","1440","900","de","ER06RD19","null","","","","learningBlock2","","","","<div style=""font-size:60px;""> </div>","null","FL","learning/Slide91.JPG","That was a wug.","",""
"","image-keyboard-response","281","422065","0.0-8.0-0.11","FL","9hgljjcs6a","1440","900","de","ER06RD19","null","","","","","","","","learning/Slide92.JPG","null","","","","",""
"","html-keyboard-response","282","423220","0.0-8.0-1.11","FL","9hgljjcs6a","1440","900","de","ER06RD19","null","","","","learningBlock2","","","","That was a tob.","null","","","","",""
"","html-keyboard-response","283","424226","0.0-8.0-2.11","FL","9hgljjcs6a","1440","900","de","ER06RD19","null","","","","learningBlock2","","","","<div style=""font-size:60px;""> </div>","null","FL","learning/Slide92.JPG","That was a tob.","",""
"","image-keyboard-response","284","424404","0.0-8.0-0.12","FL","9hgljjcs6a","1440","900","de","ER06RD19","null","","","","","","","","learning/Slide93.JPG","null","","","","",""
"","html-keyboard-response","285","425560","0.0-8.0-1.12","FL","9hgljjcs6a","1440","900","de","ER06RD19","null","","","","learningBlock2","","","","That was a bim.","null","","","","",""
"","html-keyboard-response","286","426564","0.0-8.0-2.12","FL","9hgljjcs6a","1440","900","de","ER06RD19","null","","","","learningBlock2","","","","<div style=""font-size:60px;""> </div>","null","FL","learning/Slide93.JPG","That was a bim.","",""
"","image-keyboard-response","287","426744","0.0-8.0-0.13","FL","9hgljjcs6a","1440","900","de","ER06RD19","null","","","","","","","","learning/Slide94.JPG","null","","","","",""
"","html-keyboard-response","288","427899","0.0-8.0-1.13","FL","9hgljjcs6a","1440","900","de","ER06RD19","null","","","","learningBlock2","","","","That was a tob.","null","","","","",""
"","html-keyboard-response","289","428905","0.0-8.0-2.13","FL","9hgljjcs6a","1440","900","de","ER06RD19","null","","","","learningBlock2","","","","<div style=""font-size:60px;""> </div>","null","FL","learning/Slide94.JPG","That was a tob.","",""
"","image-keyboard-response","290","429083","0.0-8.0-0.14","FL","9hgljjcs6a","1440","900","de","ER06RD19","null","","","","","","","","learning/Slide95.JPG","null","","","","",""
"","html-keyboard-response","291","430240","0.0-8.0-1.14","FL","9hgljjcs6a","1440","900","de","ER06RD19","null","","","","learningBlock2","","","","That was a wug.","null","","","","",""
"","html-keyboard-response","292","431242","0.0-8.0-2.14","FL","9hgljjcs6a","1440","900","de","ER06RD19","null","","","","learningBlock2","","","","<div style=""font-size:60px;""> </div>","null","FL","learning/Slide95.JPG","That was a wug.","",""
"","image-keyboard-response","293","431423","0.0-8.0-0.15","FL","9hgljjcs6a","1440","900","de","ER06RD19","null","","","","","","","","learning/Slide96.JPG","null","","","","",""
"","html-keyboard-response","294","432584","0.0-8.0-1.15","FL","9hgljjcs6a","1440","900","de","ER06RD19","null","","","","learningBlock2","","","","That was a tob.","null","","","","",""
"","html-keyboard-response","295","433588","0.0-8.0-2.15","FL","9hgljjcs6a","1440","900","de","ER06RD19","null","","","","learningBlock2","","","","<div style=""font-size:60px;""> </div>","null","FL","learning/Slide96.JPG","That was a tob.","",""
"","image-keyboard-response","296","433767","0.0-8.0-0.16","FL","9hgljjcs6a","1440","900","de","ER06RD19","null","","","","","","","","learning/Slide97.JPG","null","","","","",""
"","html-keyboard-response","297","434923","0.0-8.0-1.16","FL","9hgljjcs6a","1440","900","de","ER06RD19","null","","","","learningBlock2","","","","That was a dep.","null","","","","",""
"","html-keyboard-response","298","435929","0.0-8.0-2.16","FL","9hgljjcs6a","1440","900","de","ER06RD19","null","","","","learningBlock2","","","","<div style=""font-size:60px;""> </div>","null","FL","learning/Slide97.JPG","That was a dep.","",""
"","image-keyboard-response","299","436107","0.0-8.0-0.17","FL","9hgljjcs6a","1440","900","de","ER06RD19","null","","","","","","","","learning/Slide98.JPG","null","","","","",""
"","html-keyboard-response","300","437263","0.0-8.0-1.17","FL","9hgljjcs6a","1440","900","de","ER06RD19","null","","","","learningBlock2","","","","That was a bim.","null","","","","",""
"","html-keyboard-response","301","438267","0.0-8.0-2.17","FL","9hgljjcs6a","1440","900","de","ER06RD19","null","","","","learningBlock2","","","","<div style=""font-size:60px;""> </div>","null","FL","learning/Slide98.JPG","That was a bim.","",""
"","image-keyboard-response","302","438448","0.0-8.0-0.18","FL","9hgljjcs6a","1440","900","de","ER06RD19","null","","","","","","","","learning/Slide99.JPG","null","","","","",""
"","html-keyboard-response","303","439602","0.0-8.0-1.18","FL","9hgljjcs6a","1440","900","de","ER06RD19","null","","","","learningBlock2","","","","That was a dep.","null","","","","",""
"","html-keyboard-response","304","440608","0.0-8.0-2.18","FL","9hgljjcs6a","1440","900","de","ER06RD19","null","","","","learningBlock2","","","","<div style=""font-size:60px;""> </div>","null","FL","learning/Slide99.JPG","That was a dep.","",""
"","image-keyboard-response","305","440786","0.0-8.0-0.19","FL","9hgljjcs6a","1440","900","de","ER06RD19","null","","","","","","","","learning/Slide100.JPG","null","","","","",""
"","html-keyboard-response","306","441942","0.0-8.0-1.19","FL","9hgljjcs6a","1440","900","de","ER06RD19","null","","","","learningBlock2","","","","That was a bim.","null","","","","",""
"","html-keyboard-response","307","442944","0.0-8.0-2.19","FL","9hgljjcs6a","1440","900","de","ER06RD19","null","","","","learningBlock2","","","","<div style=""font-size:60px;""> </div>","null","FL","learning/Slide100.JPG","That was a bim.","",""
"","image-keyboard-response","308","443125","0.0-8.0-0.20","FL","9hgljjcs6a","1440","900","de","ER06RD19","null","","","","","","","","learning/Slide101.JPG","null","","","","",""
"","html-keyboard-response","309","444286","0.0-8.0-1.20","FL","9hgljjcs6a","1440","900","de","ER06RD19","null","","","","learningBlock2","","","","That was a tob.","null","","","","",""
"","html-keyboard-response","310","445291","0.0-8.0-2.20","FL","9hgljjcs6a","1440","900","de","ER06RD19","null","","","","learningBlock2","","","","<div style=""font-size:60px;""> </div>","null","FL","learning/Slide101.JPG","That was a tob.","",""
"","image-keyboard-response","311","445469","0.0-8.0-0.21","FL","9hgljjcs6a","1440","900","de","ER06RD19","null","","","","","","","","learning/Slide102.JPG","null","","","","",""
"","html-keyboard-response","312","446626","0.0-8.0-1.21","FL","9hgljjcs6a","1440","900","de","ER06RD19","null","","","","learningBlock2","","","","That was a bim.","null","","","","",""
"","html-keyboard-response","313","447631","0.0-8.0-2.21","FL","9hgljjcs6a","1440","900","de","ER06RD19","null","","","","learningBlock2","","","","<div style=""font-size:60px;""> </div>","null","FL","learning/Slide102.JPG","That was a bim.","",""
"","image-keyboard-response","314","447810","0.0-8.0-0.22","FL","9hgljjcs6a","1440","900","de","ER06RD19","null","","","","","","","","learning/Slide103.JPG","null","","","","",""
"","html-keyboard-response","315","448967","0.0-8.0-1.22","FL","9hgljjcs6a","1440","900","de","ER06RD19","null","","","","learningBlock2","","","","That was a dep.","null","","","","",""
"","html-keyboard-response","316","449973","0.0-8.0-2.22","FL","9hgljjcs6a","1440","900","de","ER06RD19","null","","","","learningBlock2","","","","<div style=""font-size:60px;""> </div>","null","FL","learning/Slide103.JPG","That was a dep.","",""
"","image-keyboard-response","317","450153","0.0-8.0-0.23","FL","9hgljjcs6a","1440","900","de","ER06RD19","null","","","","","","","","learning/Slide104.JPG","null","","","","",""
"","html-keyboard-response","318","451305","0.0-8.0-1.23","FL","9hgljjcs6a","1440","900","de","ER06RD19","null","","","","learningBlock2","","","","That was a tob.","null","","","","",""
"","html-keyboard-response","319","452311","0.0-8.0-2.23","FL","9hgljjcs6a","1440","900","de","ER06RD19","null","","","","learningBlock2","","","","<div style=""font-size:60px;""> </div>","null","FL","learning/Slide104.JPG","That was a tob.","",""
"","image-keyboard-response","320","452489","0.0-8.0-0.24","FL","9hgljjcs6a","1440","900","de","ER06RD19","null","","","","","","","","learning/Slide105.JPG","null","","","","",""
"","html-keyboard-response","321","453646","0.0-8.0-1.24","FL","9hgljjcs6a","1440","900","de","ER06RD19","null","","","","learningBlock2","","","","That was a dep.","null","","","","",""
"","html-keyboard-response","322","454649","0.0-8.0-2.24","FL","9hgljjcs6a","1440","900","de","ER06RD19","null","","","","learningBlock2","","","","<div style=""font-size:60px;""> </div>","null","FL","learning/Slide105.JPG","That was a dep.","",""
"","image-keyboard-response","323","454826","0.0-8.0-0.25","FL","9hgljjcs6a","1440","900","de","ER06RD19","null","","","","","","","","learning/Slide106.JPG","null","","","","",""
"","html-keyboard-response","324","455984","0.0-8.0-1.25","FL","9hgljjcs6a","1440","900","de","ER06RD19","null","","","","learningBlock2","","","","That was a wug.","null","","","","",""
"","html-keyboard-response","325","456989","0.0-8.0-2.25","FL","9hgljjcs6a","1440","900","de","ER06RD19","null","","","","learningBlock2","","","","<div style=""font-size:60px;""> </div>","null","FL","learning/Slide106.JPG","That was a wug.","",""
"","image-keyboard-response","326","457168","0.0-8.0-0.26","FL","9hgljjcs6a","1440","900","de","ER06RD19","null","","","","","","","","learning/Slide107.JPG","null","","","","",""
"","html-keyboard-response","327","458325","0.0-8.0-1.26","FL","9hgljjcs6a","1440","900","de","ER06RD19","null","","","","learningBlock2","","","","That was a bim.","null","","","","",""
"","html-keyboard-response","328","459327","0.0-8.0-2.26","FL","9hgljjcs6a","1440","900","de","ER06RD19","null","","","","learningBlock2","","","","<div style=""font-size:60px;""> </div>","null","FL","learning/Slide107.JPG","That was a bim.","",""
"","image-keyboard-response","329","459503","0.0-8.0-0.27","FL","9hgljjcs6a","1440","900","de","ER06RD19","null","","","","","","","","learning/Slide108.JPG","null","","","","",""
"","html-keyboard-response","330","460661","0.0-8.0-1.27","FL","9hgljjcs6a","1440","900","de","ER06RD19","null","","","","learningBlock2","","","","That was a dep.","null","","","","",""
"","html-keyboard-response","331","461662","0.0-8.0-2.27","FL","9hgljjcs6a","1440","900","de","ER06RD19","null","","","","learningBlock2","","","","<div style=""font-size:60px;""> </div>","null","FL","learning/Slide108.JPG","That was a dep.","",""
"","image-keyboard-response","332","461843","0.0-8.0-0.28","FL","9hgljjcs6a","1440","900","de","ER06RD19","null","","","","","","","","learning/Slide109.JPG","null","","","","",""
"","html-keyboard-response","333","462996","0.0-8.0-1.28","FL","9hgljjcs6a","1440","900","de","ER06RD19","null","","","","learningBlock2","","","","That was a wug.","null","","","","",""
"","html-keyboard-response","334","464002","0.0-8.0-2.28","FL","9hgljjcs6a","1440","900","de","ER06RD19","null","","","","learningBlock2","","","","<div style=""font-size:60px;""> </div>","null","FL","learning/Slide109.JPG","That was a wug.","",""
"","image-keyboard-response","335","464180","0.0-8.0-0.29","FL","9hgljjcs6a","1440","900","de","ER06RD19","null","","","","","","","","learning/Slide110.JPG","null","","","","",""
"","html-keyboard-response","336","465338","0.0-8.0-1.29","FL","9hgljjcs6a","1440","900","de","ER06RD19","null","","","","learningBlock2","","","","That was a bim.","null","","","","",""
"","html-keyboard-response","337","466340","0.0-8.0-2.29","FL","9hgljjcs6a","1440","900","de","ER06RD19","null","","","","learningBlock2","","","","<div style=""font-size:60px;""> </div>","null","FL","learning/Slide110.JPG","That was a bim.","",""
"","image-keyboard-response","338","466520","0.0-8.0-0.30","FL","9hgljjcs6a","1440","900","de","ER06RD19","null","","","","","","","","learning/Slide111.JPG","null","","","","",""
"","html-keyboard-response","339","467675","0.0-8.0-1.30","FL","9hgljjcs6a","1440","900","de","ER06RD19","null","","","","learningBlock2","","","","That was a tob.","null","","","","",""
"","html-keyboard-response","340","468682","0.0-8.0-2.30","FL","9hgljjcs6a","1440","900","de","ER06RD19","null","","","","learningBlock2","","","","<div style=""font-size:60px;""> </div>","null","FL","learning/Slide111.JPG","That was a tob.","",""
"","image-keyboard-response","341","468862","0.0-8.0-0.31","FL","9hgljjcs6a","1440","900","de","ER06RD19","null","","","","","","","","learning/Slide112.JPG","null","","","","",""
"","html-keyboard-response","342","470020","0.0-8.0-1.31","FL","9hgljjcs6a","1440","900","de","ER06RD19","null","","","","learningBlock2","","","","That was a wug.","null","","","","",""
"","html-keyboard-response","343","471027","0.0-8.0-2.31","FL","9hgljjcs6a","1440","900","de","ER06RD19","null","","","","learningBlock2","","","","<div style=""font-size:60px;""> </div>","null","FL","learning/Slide112.JPG","That was a wug.","",""
"","image-keyboard-response","344","471205","0.0-8.0-0.32","FL","9hgljjcs6a","1440","900","de","ER06RD19","null","","","","","","","","learning/Slide113.JPG","null","","","","",""
"","html-keyboard-response","345","472362","0.0-8.0-1.32","FL","9hgljjcs6a","1440","900","de","ER06RD19","null","","","","learningBlock2","","","","That was a tob.","null","","","","",""
"","html-keyboard-response","346","473364","0.0-8.0-2.32","FL","9hgljjcs6a","1440","900","de","ER06RD19","null","","","","learningBlock2","","","","<div style=""font-size:60px;""> </div>","null","FL","learning/Slide113.JPG","That was a tob.","",""
"","image-keyboard-response","347","473545","0.0-8.0-0.33","FL","9hgljjcs6a","1440","900","de","ER06RD19","null","","","","","","","","learning/Slide114.JPG","null","","","","",""
"","html-keyboard-response","348","474703","0.0-8.0-1.33","FL","9hgljjcs6a","1440","900","de","ER06RD19","null","","","","learningBlock2","","","","That was a wug.","null","","","","",""
"","html-keyboard-response","349","475704","0.0-8.0-2.33","FL","9hgljjcs6a","1440","900","de","ER06RD19","null","","","","learningBlock2","","","","<div style=""font-size:60px;""> </div>","null","FL","learning/Slide114.JPG","That was a wug.","",""
"","image-keyboard-response","350","475884","0.0-8.0-0.34","FL","9hgljjcs6a","1440","900","de","ER06RD19","null","","","","","","","","learning/Slide115.JPG","null","","","","",""
"","html-keyboard-response","351","477039","0.0-8.0-1.34","FL","9hgljjcs6a","1440","900","de","ER06RD19","null","","","","learningBlock2","","","","That was a bim.","null","","","","",""
"","html-keyboard-response","352","478044","0.0-8.0-2.34","FL","9hgljjcs6a","1440","900","de","ER06RD19","null","","","","learningBlock2","","","","<div style=""font-size:60px;""> </div>","null","FL","learning/Slide115.JPG","That was a bim.","",""
"","image-keyboard-response","353","478222","0.0-8.0-0.35","FL","9hgljjcs6a","1440","900","de","ER06RD19","null","","","","","","","","learning/Slide116.JPG","null","","","","",""
"","html-keyboard-response","354","479378","0.0-8.0-1.35","FL","9hgljjcs6a","1440","900","de","ER06RD19","null","","","","learningBlock2","","","","That was a dep.","null","","","","",""
"","html-keyboard-response","355","480383","0.0-8.0-2.35","FL","9hgljjcs6a","1440","900","de","ER06RD19","null","","","","learningBlock2","","","","<div style=""font-size:60px;""> </div>","null","FL","learning/Slide116.JPG","That was a dep.","",""
"","image-keyboard-response","356","480563","0.0-8.0-0.36","FL","9hgljjcs6a","1440","900","de","ER06RD19","null","","","","","","","","learning/Slide117.JPG","null","","","","",""
"","html-keyboard-response","357","481718","0.0-8.0-1.36","FL","9hgljjcs6a","1440","900","de","ER06RD19","null","","","","learningBlock2","","","","That was a tob.","null","","","","",""
"","html-keyboard-response","358","482722","0.0-8.0-2.36","FL","9hgljjcs6a","1440","900","de","ER06RD19","null","","","","learningBlock2","","","","<div style=""font-size:60px;""> </div>","null","FL","learning/Slide117.JPG","That was a tob.","",""
"","image-keyboard-response","359","482903","0.0-8.0-0.37","FL","9hgljjcs6a","1440","900","de","ER06RD19","null","","","","","","","","learning/Slide118.JPG","null","","","","",""
"","html-keyboard-response","360","484058","0.0-8.0-1.37","FL","9hgljjcs6a","1440","900","de","ER06RD19","null","","","","learningBlock2","","","","That was a dep.","null","","","","",""
"","html-keyboard-response","361","485063","0.0-8.0-2.37","FL","9hgljjcs6a","1440","900","de","ER06RD19","null","","","","learningBlock2","","","","<div style=""font-size:60px;""> </div>","null","FL","learning/Slide118.JPG","That was a dep.","",""
"","image-keyboard-response","362","485242","0.0-8.0-0.38","FL","9hgljjcs6a","1440","900","de","ER06RD19","null","","","","","","","","learning/Slide119.JPG","null","","","","",""
"","html-keyboard-response","363","486399","0.0-8.0-1.38","FL","9hgljjcs6a","1440","900","de","ER06RD19","null","","","","learningBlock2","","","","That was a wug.","null","","","","",""
"","html-keyboard-response","364","487401","0.0-8.0-2.38","FL","9hgljjcs6a","1440","900","de","ER06RD19","null","","","","learningBlock2","","","","<div style=""font-size:60px;""> </div>","null","FL","learning/Slide119.JPG","That was a wug.","",""
"","image-keyboard-response","365","487581","0.0-8.0-0.39","FL","9hgljjcs6a","1440","900","de","ER06RD19","null","","","","","","","","learning/Slide120.JPG","null","","","","",""
"","html-keyboard-response","366","488736","0.0-8.0-1.39","FL","9hgljjcs6a","1440","900","de","ER06RD19","null","","","","learningBlock2","","","","That was a dep.","null","","","","",""
"","html-keyboard-response","367","489739","0.0-8.0-2.39","FL","9hgljjcs6a","1440","900","de","ER06RD19","null","","","","learningBlock2","","","","<div style=""font-size:60px;""> </div>","null","FL","learning/Slide120.JPG","That was a dep.","",""
"","image-keyboard-response","368","489919","0.0-8.0-0.40","FL","9hgljjcs6a","1440","900","de","ER06RD19","null","","","","","","","","learning/Slide121.JPG","null","","","","",""
"","html-keyboard-response","369","491077","0.0-8.0-1.40","FL","9hgljjcs6a","1440","900","de","ER06RD19","null","","","","learningBlock2","","","","That was a bim.","null","","","","",""
"","html-keyboard-response","370","492080","0.0-8.0-2.40","FL","9hgljjcs6a","1440","900","de","ER06RD19","null","","","","learningBlock2","","","","<div style=""font-size:60px;""> </div>","null","FL","learning/Slide121.JPG","That was a bim.","",""
"","image-keyboard-response","371","492257","0.0-8.0-0.41","FL","9hgljjcs6a","1440","900","de","ER06RD19","null","","","","","","","","learning/Slide122.JPG","null","","","","",""
"","html-keyboard-response","372","493415","0.0-8.0-1.41","FL","9hgljjcs6a","1440","900","de","ER06RD19","null","","","","learningBlock2","","","","That was a wug.","null","","","","",""
"","html-keyboard-response","373","494422","0.0-8.0-2.41","FL","9hgljjcs6a","1440","900","de","ER06RD19","null","","","","learningBlock2","","","","<div style=""font-size:60px;""> </div>","null","FL","learning/Slide122.JPG","That was a wug.","",""
"","image-keyboard-response","374","494599","0.0-8.0-0.42","FL","9hgljjcs6a","1440","900","de","ER06RD19","null","","","","","","","","learning/Slide123.JPG","null","","","","",""
"","html-keyboard-response","375","495757","0.0-8.0-1.42","FL","9hgljjcs6a","1440","900","de","ER06RD19","null","","","","learningBlock2","","","","That was a bim.","null","","","","",""
"","html-keyboard-response","376","496758","0.0-8.0-2.42","FL","9hgljjcs6a","1440","900","de","ER06RD19","null","","","","learningBlock2","","","","<div style=""font-size:60px;""> </div>","null","FL","learning/Slide123.JPG","That was a bim.","",""
"","image-keyboard-response","377","496940","0.0-8.0-0.43","FL","9hgljjcs6a","1440","900","de","ER06RD19","null","","","","","","","","learning/Slide124.JPG","null","","","","",""
"","html-keyboard-response","378","498098","0.0-8.0-1.43","FL","9hgljjcs6a","1440","900","de","ER06RD19","null","","","","learningBlock2","","","","That was a tob.","null","","","","",""
"","html-keyboard-response","379","499105","0.0-8.0-2.43","FL","9hgljjcs6a","1440","900","de","ER06RD19","null","","","","learningBlock2","","","","<div style=""font-size:60px;""> </div>","null","FL","learning/Slide124.JPG","That was a tob.","",""
"","image-keyboard-response","380","499285","0.0-8.0-0.44","FL","9hgljjcs6a","1440","900","de","ER06RD19","null","","","","","","","","learning/Slide125.JPG","null","","","","",""
"","html-keyboard-response","381","500442","0.0-8.0-1.44","FL","9hgljjcs6a","1440","900","de","ER06RD19","null","","","","learningBlock2","","","","That was a bim.","null","","","","",""
"","html-keyboard-response","382","501448","0.0-8.0-2.44","FL","9hgljjcs6a","1440","900","de","ER06RD19","null","","","","learningBlock2","","","","<div style=""font-size:60px;""> </div>","null","FL","learning/Slide125.JPG","That was a bim.","",""
"","image-keyboard-response","383","501630","0.0-8.0-0.45","FL","9hgljjcs6a","1440","900","de","ER06RD19","null","","","","","","","","learning/Slide126.JPG","null","","","","",""
"","html-keyboard-response","384","502785","0.0-8.0-1.45","FL","9hgljjcs6a","1440","900","de","ER06RD19","null","","","","learningBlock2","","","","That was a tob.","null","","","","",""
"","html-keyboard-response","385","503788","0.0-8.0-2.45","FL","9hgljjcs6a","1440","900","de","ER06RD19","null","","","","learningBlock2","","","","<div style=""font-size:60px;""> </div>","null","FL","learning/Slide126.JPG","That was a tob.","",""
"","image-keyboard-response","386","503969","0.0-8.0-0.46","FL","9hgljjcs6a","1440","900","de","ER06RD19","null","","","","","","","","learning/Slide127.JPG","null","","","","",""
"","html-keyboard-response","387","505126","0.0-8.0-1.46","FL","9hgljjcs6a","1440","900","de","ER06RD19","null","","","","learningBlock2","","","","That was a dep.","null","","","","",""
"","html-keyboard-response","388","506129","0.0-8.0-2.46","FL","9hgljjcs6a","1440","900","de","ER06RD19","null","","","","learningBlock2","","","","<div style=""font-size:60px;""> </div>","null","FL","learning/Slide127.JPG","That was a dep.","",""
"","image-keyboard-response","389","506308","0.0-8.0-0.47","FL","9hgljjcs6a","1440","900","de","ER06RD19","null","","","","","","","","learning/Slide128.JPG","null","","","","",""
"","html-keyboard-response","390","507464","0.0-8.0-1.47","FL","9hgljjcs6a","1440","900","de","ER06RD19","null","","","","learningBlock2","","","","That was a wug.","null","","","","",""
"","html-keyboard-response","391","508469","0.0-8.0-2.47","FL","9hgljjcs6a","1440","900","de","ER06RD19","null","","","","learningBlock2","","","","<div style=""font-size:60px;""> </div>","null","FL","learning/Slide128.JPG","That was a wug.","",""
"","image-keyboard-response","392","508649","0.0-8.0-0.48","FL","9hgljjcs6a","1440","900","de","ER06RD19","null","","","","","","","","learning/Slide129.JPG","null","","","","",""
"","html-keyboard-response","393","509802","0.0-8.0-1.48","FL","9hgljjcs6a","1440","900","de","ER06RD19","null","","","","learningBlock2","","","","That was a tob.","null","","","","",""
"","html-keyboard-response","394","510804","0.0-8.0-2.48","FL","9hgljjcs6a","1440","900","de","ER06RD19","null","","","","learningBlock2","","","","<div style=""font-size:60px;""> </div>","null","FL","learning/Slide129.JPG","That was a tob.","",""
"","image-keyboard-response","395","510982","0.0-8.0-0.49","FL","9hgljjcs6a","1440","900","de","ER06RD19","null","","","","","","","","learning/Slide130.JPG","null","","","","",""
"","html-keyboard-response","396","512137","0.0-8.0-1.49","FL","9hgljjcs6a","1440","900","de","ER06RD19","null","","","","learningBlock2","","","","That was a wug.","null","","","","",""
"","html-keyboard-response","397","513141","0.0-8.0-2.49","FL","9hgljjcs6a","1440","900","de","ER06RD19","null","","","","learningBlock2","","","","<div style=""font-size:60px;""> </div>","null","FL","learning/Slide130.JPG","That was a wug.","",""
"","image-keyboard-response","398","513323","0.0-8.0-0.50","FL","9hgljjcs6a","1440","900","de","ER06RD19","null","","","","","","","","learning/Slide131.JPG","null","","","","",""
"","html-keyboard-response","399","514477","0.0-8.0-1.50","FL","9hgljjcs6a","1440","900","de","ER06RD19","null","","","","learningBlock2","","","","That was a bim.","null","","","","",""
"","html-keyboard-response","400","515483","0.0-8.0-2.50","FL","9hgljjcs6a","1440","900","de","ER06RD19","null","","","","learningBlock2","","","","<div style=""font-size:60px;""> </div>","null","FL","learning/Slide131.JPG","That was a bim.","",""
"","image-keyboard-response","401","515661","0.0-8.0-0.51","FL","9hgljjcs6a","1440","900","de","ER06RD19","null","","","","","","","","learning/Slide132.JPG","null","","","","",""
"","html-keyboard-response","402","516818","0.0-8.0-1.51","FL","9hgljjcs6a","1440","900","de","ER06RD19","null","","","","learningBlock2","","","","That was a dep.","null","","","","",""
"","html-keyboard-response","403","517819","0.0-8.0-2.51","FL","9hgljjcs6a","1440","900","de","ER06RD19","null","","","","learningBlock2","","","","<div style=""font-size:60px;""> </div>","null","FL","learning/Slide132.JPG","That was a dep.","",""
"","image-keyboard-response","404","517996","0.0-8.0-0.52","FL","9hgljjcs6a","1440","900","de","ER06RD19","null","","","","","","","","learning/Slide133.JPG","null","","","","",""
"","html-keyboard-response","405","519155","0.0-8.0-1.52","FL","9hgljjcs6a","1440","900","de","ER06RD19","null","","","","learningBlock2","","","","That was a tob.","null","","","","",""
"","html-keyboard-response","406","520162","0.0-8.0-2.52","FL","9hgljjcs6a","1440","900","de","ER06RD19","null","","","","learningBlock2","","","","<div style=""font-size:60px;""> </div>","null","FL","learning/Slide133.JPG","That was a tob.","",""
"","image-keyboard-response","407","520340","0.0-8.0-0.53","FL","9hgljjcs6a","1440","900","de","ER06RD19","null","","","","","","","","learning/Slide134.JPG","null","","","","",""
"","html-keyboard-response","408","521497","0.0-8.0-1.53","FL","9hgljjcs6a","1440","900","de","ER06RD19","null","","","","learningBlock2","","","","That was a dep.","null","","","","",""
"","html-keyboard-response","409","522499","0.0-8.0-2.53","FL","9hgljjcs6a","1440","900","de","ER06RD19","null","","","","learningBlock2","","","","<div style=""font-size:60px;""> </div>","null","FL","learning/Slide134.JPG","That was a dep.","",""
"","image-keyboard-response","410","522676","0.0-8.0-0.54","FL","9hgljjcs6a","1440","900","de","ER06RD19","null","","","","","","","","learning/Slide135.JPG","null","","","","",""
"","html-keyboard-response","411","523835","0.0-8.0-1.54","FL","9hgljjcs6a","1440","900","de","ER06RD19","null","","","","learningBlock2","","","","That was a tob.","null","","","","",""
"","html-keyboard-response","412","524836","0.0-8.0-2.54","FL","9hgljjcs6a","1440","900","de","ER06RD19","null","","","","learningBlock2","","","","<div style=""font-size:60px;""> </div>","null","FL","learning/Slide135.JPG","That was a tob.","",""
"","image-keyboard-response","413","525017","0.0-8.0-0.55","FL","9hgljjcs6a","1440","900","de","ER06RD19","null","","","","","","","","learning/Slide136.JPG","null","","","","",""
"","html-keyboard-response","414","526175","0.0-8.0-1.55","FL","9hgljjcs6a","1440","900","de","ER06RD19","null","","","","learningBlock2","","","","That was a wug.","null","","","","",""
"","html-keyboard-response","415","527178","0.0-8.0-2.55","FL","9hgljjcs6a","1440","900","de","ER06RD19","null","","","","learningBlock2","","","","<div style=""font-size:60px;""> </div>","null","FL","learning/Slide136.JPG","That was a wug.","",""
"","image-keyboard-response","416","527359","0.0-8.0-0.56","FL","9hgljjcs6a","1440","900","de","ER06RD19","null","","","","","","","","learning/Slide137.JPG","null","","","","",""
"","html-keyboard-response","417","528513","0.0-8.0-1.56","FL","9hgljjcs6a","1440","900","de","ER06RD19","null","","","","learningBlock2","","","","That was a tob.","null","","","","",""
"","html-keyboard-response","418","529520","0.0-8.0-2.56","FL","9hgljjcs6a","1440","900","de","ER06RD19","null","","","","learningBlock2","","","","<div style=""font-size:60px;""> </div>","null","FL","learning/Slide137.JPG","That was a tob.","",""
"","image-keyboard-response","419","529697","0.0-8.0-0.57","FL","9hgljjcs6a","1440","900","de","ER06RD19","null","","","","","","","","learning/Slide138.JPG","null","","","","",""
"","html-keyboard-response","420","530855","0.0-8.0-1.57","FL","9hgljjcs6a","1440","900","de","ER06RD19","null","","","","learningBlock2","","","","That was a bim.","null","","","","",""
"","html-keyboard-response","421","531857","0.0-8.0-2.57","FL","9hgljjcs6a","1440","900","de","ER06RD19","null","","","","learningBlock2","","","","<div style=""font-size:60px;""> </div>","null","FL","learning/Slide138.JPG","That was a bim.","",""
"","image-keyboard-response","422","532038","0.0-8.0-0.58","FL","9hgljjcs6a","1440","900","de","ER06RD19","null","","","","","","","","learning/Slide139.JPG","null","","","","",""
"","html-keyboard-response","423","533192","0.0-8.0-1.58","FL","9hgljjcs6a","1440","900","de","ER06RD19","null","","","","learningBlock2","","","","That was a wug.","null","","","","",""
"","html-keyboard-response","424","534198","0.0-8.0-2.58","FL","9hgljjcs6a","1440","900","de","ER06RD19","null","","","","learningBlock2","","","","<div style=""font-size:60px;""> </div>","null","FL","learning/Slide139.JPG","That was a wug.","",""
"","image-keyboard-response","425","534377","0.0-8.0-0.59","FL","9hgljjcs6a","1440","900","de","ER06RD19","null","","","","","","","","learning/Slide140.JPG","null","","","","",""
"","html-keyboard-response","426","535534","0.0-8.0-1.59","FL","9hgljjcs6a","1440","900","de","ER06RD19","null","","","","learningBlock2","","","","That was a dep.","null","","","","",""
"","html-keyboard-response","427","536537","0.0-8.0-2.59","FL","9hgljjcs6a","1440","900","de","ER06RD19","null","","","","learningBlock2","","","","<div style=""font-size:60px;""> </div>","null","FL","learning/Slide140.JPG","That was a dep.","",""
"","image-keyboard-response","428","536712","0.0-8.0-0.60","FL","9hgljjcs6a","1440","900","de","ER06RD19","null","","","","","","","","learning/Slide141.JPG","null","","","","",""
"","html-keyboard-response","429","537871","0.0-8.0-1.60","FL","9hgljjcs6a","1440","900","de","ER06RD19","null","","","","learningBlock2","","","","That was a tob.","null","","","","",""
"","html-keyboard-response","430","538878","0.0-8.0-2.60","FL","9hgljjcs6a","1440","900","de","ER06RD19","null","","","","learningBlock2","","","","<div style=""font-size:60px;""> </div>","null","FL","learning/Slide141.JPG","That was a tob.","",""
"","image-keyboard-response","431","539058","0.0-8.0-0.61","FL","9hgljjcs6a","1440","900","de","ER06RD19","null","","","","","","","","learning/Slide142.JPG","null","","","","",""
"","html-keyboard-response","432","540214","0.0-8.0-1.61","FL","9hgljjcs6a","1440","900","de","ER06RD19","null","","","","learningBlock2","","","","That was a wug.","null","","","","",""
"","html-keyboard-response","433","541215","0.0-8.0-2.61","FL","9hgljjcs6a","1440","900","de","ER06RD19","null","","","","learningBlock2","","","","<div style=""font-size:60px;""> </div>","null","FL","learning/Slide142.JPG","That was a wug.","",""
"","image-keyboard-response","434","541396","0.0-8.0-0.62","FL","9hgljjcs6a","1440","900","de","ER06RD19","null","","","","","","","","learning/Slide143.JPG","null","","","","",""
"","html-keyboard-response","435","542550","0.0-8.0-1.62","FL","9hgljjcs6a","1440","900","de","ER06RD19","null","","","","learningBlock2","","","","That was a bim.","null","","","","",""
"","html-keyboard-response","436","543557","0.0-8.0-2.62","FL","9hgljjcs6a","1440","900","de","ER06RD19","null","","","","learningBlock2","","","","<div style=""font-size:60px;""> </div>","null","FL","learning/Slide143.JPG","That was a bim.","",""
"","image-keyboard-response","437","543734","0.0-8.0-0.63","FL","9hgljjcs6a","1440","900","de","ER06RD19","null","","","","","","","","learning/Slide144.JPG","null","","","","",""
"","html-keyboard-response","438","544888","0.0-8.0-1.63","FL","9hgljjcs6a","1440","900","de","ER06RD19","null","","","","learningBlock2","","","","That was a dep.","null","","","","",""
"","html-keyboard-response","439","545894","0.0-8.0-2.63","FL","9hgljjcs6a","1440","900","de","ER06RD19","null","","","","learningBlock2","","","","<div style=""font-size:60px;""> </div>","null","FL","learning/Slide144.JPG","That was a dep.","",""
"","image-keyboard-response","440","546075","0.0-8.0-0.64","FL","9hgljjcs6a","1440","900","de","ER06RD19","null","","","","","","","","learning/Slide145.JPG","null","","","","",""
"","html-keyboard-response","441","547229","0.0-8.0-1.64","FL","9hgljjcs6a","1440","900","de","ER06RD19","null","","","","learningBlock2","","","","That was a bim.","null","","","","",""
"","html-keyboard-response","442","548233","0.0-8.0-2.64","FL","9hgljjcs6a","1440","900","de","ER06RD19","null","","","","learningBlock2","","","","<div style=""font-size:60px;""> </div>","null","FL","learning/Slide145.JPG","That was a bim.","",""
"","image-keyboard-response","443","548413","0.0-8.0-0.65","FL","9hgljjcs6a","1440","900","de","ER06RD19","null","","","","","","","","learning/Slide146.JPG","null","","","","",""
"","html-keyboard-response","444","549571","0.0-8.0-1.65","FL","9hgljjcs6a","1440","900","de","ER06RD19","null","","","","learningBlock2","","","","That was a tob.","null","","","","",""
"","html-keyboard-response","445","550573","0.0-8.0-2.65","FL","9hgljjcs6a","1440","900","de","ER06RD19","null","","","","learningBlock2","","","","<div style=""font-size:60px;""> </div>","null","FL","learning/Slide146.JPG","That was a tob.","",""
"","image-keyboard-response","446","550755","0.0-8.0-0.66","FL","9hgljjcs6a","1440","900","de","ER06RD19","null","","","","","","","","learning/Slide147.JPG","null","","","","",""
"","html-keyboard-response","447","551915","0.0-8.0-1.66","FL","9hgljjcs6a","1440","900","de","ER06RD19","null","","","","learningBlock2","","","","That was a wug.","null","","","","",""
"","html-keyboard-response","448","552918","0.0-8.0-2.66","FL","9hgljjcs6a","1440","900","de","ER06RD19","null","","","","learningBlock2","","","","<div style=""font-size:60px;""> </div>","null","FL","learning/Slide147.JPG","That was a wug.","",""
"","image-keyboard-response","449","553096","0.0-8.0-0.67","FL","9hgljjcs6a","1440","900","de","ER06RD19","null","","","","","","","","learning/Slide148.JPG","null","","","","",""
"","html-keyboard-response","450","554254","0.0-8.0-1.67","FL","9hgljjcs6a","1440","900","de","ER06RD19","null","","","","learningBlock2","","","","That was a bim.","null","","","","",""
"","html-keyboard-response","451","555259","0.0-8.0-2.67","FL","9hgljjcs6a","1440","900","de","ER06RD19","null","","","","learningBlock2","","","","<div style=""font-size:60px;""> </div>","null","FL","learning/Slide148.JPG","That was a bim.","",""
"","image-keyboard-response","452","555438","0.0-8.0-0.68","FL","9hgljjcs6a","1440","900","de","ER06RD19","null","","","","","","","","learning/Slide149.JPG","null","","","","",""
"","html-keyboard-response","453","556590","0.0-8.0-1.68","FL","9hgljjcs6a","1440","900","de","ER06RD19","null","","","","learningBlock2","","","","That was a dep.","null","","","","",""
"","html-keyboard-response","454","557593","0.0-8.0-2.68","FL","9hgljjcs6a","1440","900","de","ER06RD19","null","","","","learningBlock2","","","","<div style=""font-size:60px;""> </div>","null","FL","learning/Slide149.JPG","That was a dep.","",""
"","image-keyboard-response","455","557772","0.0-8.0-0.69","FL","9hgljjcs6a","1440","900","de","ER06RD19","null","","","","","","","","learning/Slide150.JPG","null","","","","",""
"","html-keyboard-response","456","558927","0.0-8.0-1.69","FL","9hgljjcs6a","1440","900","de","ER06RD19","null","","","","learningBlock2","","","","That was a wug.","null","","","","",""
"","html-keyboard-response","457","559930","0.0-8.0-2.69","FL","9hgljjcs6a","1440","900","de","ER06RD19","null","","","","learningBlock2","","","","<div style=""font-size:60px;""> </div>","null","FL","learning/Slide150.JPG","That was a wug.","",""
"","image-keyboard-response","458","560108","0.0-8.0-0.70","FL","9hgljjcs6a","1440","900","de","ER06RD19","null","","","","","","","","learning/Slide151.JPG","null","","","","",""
"","html-keyboard-response","459","561265","0.0-8.0-1.70","FL","9hgljjcs6a","1440","900","de","ER06RD19","null","","","","learningBlock2","","","","That was a dep.","null","","","","",""
"","html-keyboard-response","460","562267","0.0-8.0-2.70","FL","9hgljjcs6a","1440","900","de","ER06RD19","null","","","","learningBlock2","","","","<div style=""font-size:60px;""> </div>","null","FL","learning/Slide151.JPG","That was a dep.","",""
"","image-keyboard-response","461","562443","0.0-8.0-0.71","FL","9hgljjcs6a","1440","900","de","ER06RD19","null","","","","","","","","learning/Slide152.JPG","null","","","","",""
"","html-keyboard-response","462","563600","0.0-8.0-1.71","FL","9hgljjcs6a","1440","900","de","ER06RD19","null","","","","learningBlock2","","","","That was a wug.","null","","","","",""
"","html-keyboard-response","463","564603","0.0-8.0-2.71","FL","9hgljjcs6a","1440","900","de","ER06RD19","null","","","","learningBlock2","","","","<div style=""font-size:60px;""> </div>","null","FL","learning/Slide152.JPG","That was a wug.","",""
"","image-keyboard-response","464","564784","0.0-8.0-0.72","FL","9hgljjcs6a","1440","900","de","ER06RD19","null","","","","","","","","learning/Slide153.JPG","null","","","","",""
"","html-keyboard-response","465","565935","0.0-8.0-1.72","FL","9hgljjcs6a","1440","900","de","ER06RD19","null","","","","learningBlock2","","","","That was a bim.","null","","","","",""
"","html-keyboard-response","466","566941","0.0-8.0-2.72","FL","9hgljjcs6a","1440","900","de","ER06RD19","null","","","","learningBlock2","","","","<div style=""font-size:60px;""> </div>","null","FL","learning/Slide153.JPG","That was a bim.","",""
"","image-keyboard-response","467","567118","0.0-8.0-0.73","FL","9hgljjcs6a","1440","900","de","ER06RD19","null","","","","","","","","learning/Slide154.JPG","null","","","","",""
"","html-keyboard-response","468","568273","0.0-8.0-1.73","FL","9hgljjcs6a","1440","900","de","ER06RD19","null","","","","learningBlock2","","","","That was a tob.","null","","","","",""
"","html-keyboard-response","469","569277","0.0-8.0-2.73","FL","9hgljjcs6a","1440","900","de","ER06RD19","null","","","","learningBlock2","","","","<div style=""font-size:60px;""> </div>","null","FL","learning/Slide154.JPG","That was a tob.","",""
"","image-keyboard-response","470","569454","0.0-8.0-0.74","FL","9hgljjcs6a","1440","900","de","ER06RD19","null","","","","","","","","learning/Slide155.JPG","null","","","","",""
"","html-keyboard-response","471","570612","0.0-8.0-1.74","FL","9hgljjcs6a","1440","900","de","ER06RD19","null","","","","learningBlock2","","","","That was a dep.","null","","","","",""
"","html-keyboard-response","472","571617","0.0-8.0-2.74","FL","9hgljjcs6a","1440","900","de","ER06RD19","null","","","","learningBlock2","","","","<div style=""font-size:60px;""> </div>","null","FL","learning/Slide155.JPG","That was a dep.","",""
"","image-keyboard-response","473","571798","0.0-8.0-0.75","FL","9hgljjcs6a","1440","900","de","ER06RD19","null","","","","","","","","learning/Slide156.JPG","null","","","","",""
"","html-keyboard-response","474","572955","0.0-8.0-1.75","FL","9hgljjcs6a","1440","900","de","ER06RD19","null","","","","learningBlock2","","","","That was a bim.","null","","","","",""
"","html-keyboard-response","475","573958","0.0-8.0-2.75","FL","9hgljjcs6a","1440","900","de","ER06RD19","null","","","","learningBlock2","","","","<div style=""font-size:60px;""> </div>","null","FL","learning/Slide156.JPG","That was a bim.","",""
"","image-keyboard-response","476","574138","0.0-8.0-0.76","FL","9hgljjcs6a","1440","900","de","ER06RD19","null","","","","","","","","learning/Slide157.JPG","null","","","","",""
"","html-keyboard-response","477","575296","0.0-8.0-1.76","FL","9hgljjcs6a","1440","900","de","ER06RD19","null","","","","learningBlock2","","","","That was a dep.","null","","","","",""
"","html-keyboard-response","478","576302","0.0-8.0-2.76","FL","9hgljjcs6a","1440","900","de","ER06RD19","null","","","","learningBlock2","","","","<div style=""font-size:60px;""> </div>","null","FL","learning/Slide157.JPG","That was a dep.","",""
"","image-keyboard-response","479","576482","0.0-8.0-0.77","FL","9hgljjcs6a","1440","900","de","ER06RD19","null","","","","","","","","learning/Slide158.JPG","null","","","","",""
"","html-keyboard-response","480","577636","0.0-8.0-1.77","FL","9hgljjcs6a","1440","900","de","ER06RD19","null","","","","learningBlock2","","","","That was a tob.","null","","","","",""
"","html-keyboard-response","481","578643","0.0-8.0-2.77","FL","9hgljjcs6a","1440","900","de","ER06RD19","null","","","","learningBlock2","","","","<div style=""font-size:60px;""> </div>","null","FL","learning/Slide158.JPG","That was a tob.","",""
"","image-keyboard-response","482","578821","0.0-8.0-0.78","FL","9hgljjcs6a","1440","900","de","ER06RD19","null","","","","","","","","learning/Slide159.JPG","null","","","","",""
"","html-keyboard-response","483","579978","0.0-8.0-1.78","FL","9hgljjcs6a","1440","900","de","ER06RD19","null","","","","learningBlock2","","","","That was a dep.","null","","","","",""
"","html-keyboard-response","484","580981","0.0-8.0-2.78","FL","9hgljjcs6a","1440","900","de","ER06RD19","null","","","","learningBlock2","","","","<div style=""font-size:60px;""> </div>","null","FL","learning/Slide159.JPG","That was a dep.","",""
"","image-keyboard-response","485","581162","0.0-8.0-0.79","FL","9hgljjcs6a","1440","900","de","ER06RD19","null","","","","","","","","learning/Slide160.JPG","null","","","","",""
"","html-keyboard-response","486","582315","0.0-8.0-1.79","FL","9hgljjcs6a","1440","900","de","ER06RD19","null","","","","learningBlock2","","","","That was a wug.","null","","","","",""
"","html-keyboard-response","487","583321","0.0-8.0-2.79","FL","9hgljjcs6a","1440","900","de","ER06RD19","null","","","","learningBlock2","","","","<div style=""font-size:60px;""> </div>","null","FL","learning/Slide160.JPG","That was a wug.","",""
"","resize2","488","587337","0.0-9.0","FL","9hgljjcs6a","1440","900","de","ER06RD19","","","","","","","104","1.04","","","","","","",""
