"success","trial_type","trial_index","time_elapsed","internal_node_id","condition","subject","screen_width","screen_height","language","codeword","rt","responses","url","view_history","test_part","final_height_px","final_width_px","scale_factor","stimulus","key_press","learningType","presentedImage","presentedLabel","button_pressed","response"
"true","fullscreen","0","14169","0.0-0.0","LF","xtld2mlddm","1280","720","de","ek05an20","","","","","","","","","","","","","","",""
"","survey-html-form","1","17944","0.0-1.0","LF","xtld2mlddm","1280","720","de","ek05an20","3771.3399999774992","{""language"":""de""}","","","","","","","","","","","","",""
"","external-html","2","73455","0.0-2.0-0.0","LF","xtld2mlddm","1280","720","de","ek05an20","55433.00499999896","","text/information.html","","","","","","","","","","","",""
"","external-html","3","95198","0.0-2.0-1.0","LF","xtld2mlddm","1280","720","de","ek05an20","21640.804999973625","","text/consent.html","","","","","","","","","","","",""
"","survey-html-form","4","204885","0.0-2.0-2.0","LF","xtld2mlddm","1280","720","de","ek05an20","109681.67999992147","{""codeword_enter"":""ek05an20""}","","","","","","","","","","","","",""
"","instructions","5","223253","0.0-4.0","LF","xtld2mlddm","1280","720","de","ek05an20","NA","","","[{""page_index"":0,""viewing_time"":2587.904999963939},{""page_index"":1,""viewing_time"":14271.730000036769}]","instructions","","","","","","","","","",""
"","resize","6","288844","0.0-5.0","LF","xtld2mlddm","1280","720","de","ek05an20","","","","","","","320","2.0317460317460316","","","","","","",""
"","html-keyboard-response","7","289847","0.0-6.0-0.0","LF","xtld2mlddm","1280","720","de","ek05an20","null","","","","learningBlock1","","","","This is a tob:","null","","","","",""
"","image-keyboard-response","8","290178","0.0-6.0-1.0","LF","xtld2mlddm","1280","720","de","ek05an20","null","","","","","","","","learning/Slide1.JPG","null","","","","",""
"","html-keyboard-response","9","291180","0.0-6.0-2.0","LF","xtld2mlddm","1280","720","de","ek05an20","null","","","","learningBlock1","","","","<div style=""font-size:60px;""> </div>","null","LF","learning/Slide1.JPG","This is a tob:","",""
"","html-keyboard-response","10","292181","0.0-6.0-0.1","LF","xtld2mlddm","1280","720","de","ek05an20","null","","","","learningBlock1","","","","This is a wug:","null","","","","",""
"","image-keyboard-response","11","292507","0.0-6.0-1.1","LF","xtld2mlddm","1280","720","de","ek05an20","null","","","","","","","","learning/Slide2.JPG","null","","","","",""
"","html-keyboard-response","12","293515","0.0-6.0-2.1","LF","xtld2mlddm","1280","720","de","ek05an20","null","","","","learningBlock1","","","","<div style=""font-size:60px;""> </div>","null","LF","learning/Slide2.JPG","This is a wug:","",""
"","html-keyboard-response","13","294527","0.0-6.0-0.2","LF","xtld2mlddm","1280","720","de","ek05an20","null","","","","learningBlock1","","","","This is a bim:","null","","","","",""
"","image-keyboard-response","14","294866","0.0-6.0-1.2","LF","xtld2mlddm","1280","720","de","ek05an20","null","","","","","","","","learning/Slide3.JPG","null","","","","",""
"","html-keyboard-response","15","295878","0.0-6.0-2.2","LF","xtld2mlddm","1280","720","de","ek05an20","null","","","","learningBlock1","","","","<div style=""font-size:60px;""> </div>","null","LF","learning/Slide3.JPG","This is a bim:","",""
"","html-keyboard-response","16","296890","0.0-6.0-0.3","LF","xtld2mlddm","1280","720","de","ek05an20","null","","","","learningBlock1","","","","This is a dep:","null","","","","",""
"","image-keyboard-response","17","297230","0.0-6.0-1.3","LF","xtld2mlddm","1280","720","de","ek05an20","null","","","","","","","","learning/Slide4.JPG","null","","","","",""
"","html-keyboard-response","18","298241","0.0-6.0-2.3","LF","xtld2mlddm","1280","720","de","ek05an20","null","","","","learningBlock1","","","","<div style=""font-size:60px;""> </div>","null","LF","learning/Slide4.JPG","This is a dep:","",""
"","html-keyboard-response","19","299253","0.0-6.0-0.4","LF","xtld2mlddm","1280","720","de","ek05an20","null","","","","learningBlock1","","","","This is a wug:","null","","","","",""
"","image-keyboard-response","20","299590","0.0-6.0-1.4","LF","xtld2mlddm","1280","720","de","ek05an20","null","","","","","","","","learning/Slide5.JPG","null","","","","",""
"","html-keyboard-response","21","300601","0.0-6.0-2.4","LF","xtld2mlddm","1280","720","de","ek05an20","null","","","","learningBlock1","","","","<div style=""font-size:60px;""> </div>","null","LF","learning/Slide5.JPG","This is a wug:","",""
"","html-keyboard-response","22","301612","0.0-6.0-0.5","LF","xtld2mlddm","1280","720","de","ek05an20","null","","","","learningBlock1","","","","This is a dep:","null","","","","",""
"","image-keyboard-response","23","301942","0.0-6.0-1.5","LF","xtld2mlddm","1280","720","de","ek05an20","null","","","","","","","","learning/Slide6.JPG","null","","","","",""
"","html-keyboard-response","24","302948","0.0-6.0-2.5","LF","xtld2mlddm","1280","720","de","ek05an20","null","","","","learningBlock1","","","","<div style=""font-size:60px;""> </div>","null","LF","learning/Slide6.JPG","This is a dep:","",""
"","html-keyboard-response","25","303962","0.0-6.0-0.6","LF","xtld2mlddm","1280","720","de","ek05an20","null","","","","learningBlock1","","","","This is a wug:","null","","","","",""
"","image-keyboard-response","26","304292","0.0-6.0-1.6","LF","xtld2mlddm","1280","720","de","ek05an20","null","","","","","","","","learning/Slide7.JPG","null","","","","",""
"","html-keyboard-response","27","305296","0.0-6.0-2.6","LF","xtld2mlddm","1280","720","de","ek05an20","null","","","","learningBlock1","","","","<div style=""font-size:60px;""> </div>","null","LF","learning/Slide7.JPG","This is a wug:","",""
"","html-keyboard-response","28","306308","0.0-6.0-0.7","LF","xtld2mlddm","1280","720","de","ek05an20","null","","","","learningBlock1","","","","This is a bim:","null","","","","",""
"","image-keyboard-response","29","306639","0.0-6.0-1.7","LF","xtld2mlddm","1280","720","de","ek05an20","null","","","","","","","","learning/Slide8.JPG","null","","","","",""
"","html-keyboard-response","30","307642","0.0-6.0-2.7","LF","xtld2mlddm","1280","720","de","ek05an20","null","","","","learningBlock1","","","","<div style=""font-size:60px;""> </div>","null","LF","learning/Slide8.JPG","This is a bim:","",""
"","html-keyboard-response","31","308655","0.0-6.0-0.8","LF","xtld2mlddm","1280","720","de","ek05an20","null","","","","learningBlock1","","","","This is a wug:","null","","","","",""
"","image-keyboard-response","32","308994","0.0-6.0-1.8","LF","xtld2mlddm","1280","720","de","ek05an20","null","","","","","","","","learning/Slide9.JPG","null","","","","",""
"","html-keyboard-response","33","310008","0.0-6.0-2.8","LF","xtld2mlddm","1280","720","de","ek05an20","null","","","","learningBlock1","","","","<div style=""font-size:60px;""> </div>","null","LF","learning/Slide9.JPG","This is a wug:","",""
"","html-keyboard-response","34","311020","0.0-6.0-0.9","LF","xtld2mlddm","1280","720","de","ek05an20","null","","","","learningBlock1","","","","This is a dep:","null","","","","",""
"","image-keyboard-response","35","311348","0.0-6.0-1.9","LF","xtld2mlddm","1280","720","de","ek05an20","null","","","","","","","","learning/Slide10.JPG","null","","","","",""
"","html-keyboard-response","36","312354","0.0-6.0-2.9","LF","xtld2mlddm","1280","720","de","ek05an20","null","","","","learningBlock1","","","","<div style=""font-size:60px;""> </div>","null","LF","learning/Slide10.JPG","This is a dep:","",""
"","html-keyboard-response","37","313366","0.0-6.0-0.10","LF","xtld2mlddm","1280","720","de","ek05an20","null","","","","learningBlock1","","","","This is a tob:","null","","","","",""
"","image-keyboard-response","38","313696","0.0-6.0-1.10","LF","xtld2mlddm","1280","720","de","ek05an20","null","","","","","","","","learning/Slide11.JPG","null","","","","",""
"","html-keyboard-response","39","314701","0.0-6.0-2.10","LF","xtld2mlddm","1280","720","de","ek05an20","null","","","","learningBlock1","","","","<div style=""font-size:60px;""> </div>","null","LF","learning/Slide11.JPG","This is a tob:","",""
"","html-keyboard-response","40","315712","0.0-6.0-0.11","LF","xtld2mlddm","1280","720","de","ek05an20","null","","","","learningBlock1","","","","This is a dep:","null","","","","",""
"","image-keyboard-response","41","316039","0.0-6.0-1.11","LF","xtld2mlddm","1280","720","de","ek05an20","null","","","","","","","","learning/Slide12.JPG","null","","","","",""
"","html-keyboard-response","42","317047","0.0-6.0-2.11","LF","xtld2mlddm","1280","720","de","ek05an20","null","","","","learningBlock1","","","","<div style=""font-size:60px;""> </div>","null","LF","learning/Slide12.JPG","This is a dep:","",""
"","html-keyboard-response","43","318060","0.0-6.0-0.12","LF","xtld2mlddm","1280","720","de","ek05an20","null","","","","learningBlock1","","","","This is a bim:","null","","","","",""
"","image-keyboard-response","44","318399","0.0-6.0-1.12","LF","xtld2mlddm","1280","720","de","ek05an20","null","","","","","","","","learning/Slide13.JPG","null","","","","",""
"","html-keyboard-response","45","319411","0.0-6.0-2.12","LF","xtld2mlddm","1280","720","de","ek05an20","null","","","","learningBlock1","","","","<div style=""font-size:60px;""> </div>","null","LF","learning/Slide13.JPG","This is a bim:","",""
"","html-keyboard-response","46","320422","0.0-6.0-0.13","LF","xtld2mlddm","1280","720","de","ek05an20","null","","","","learningBlock1","","","","This is a wug:","null","","","","",""
"","image-keyboard-response","47","320752","0.0-6.0-1.13","LF","xtld2mlddm","1280","720","de","ek05an20","null","","","","","","","","learning/Slide14.JPG","null","","","","",""
"","html-keyboard-response","48","321759","0.0-6.0-2.13","LF","xtld2mlddm","1280","720","de","ek05an20","null","","","","learningBlock1","","","","<div style=""font-size:60px;""> </div>","null","LF","learning/Slide14.JPG","This is a wug:","",""
"","html-keyboard-response","49","322772","0.0-6.0-0.14","LF","xtld2mlddm","1280","720","de","ek05an20","null","","","","learningBlock1","","","","This is a tob:","null","","","","",""
"","image-keyboard-response","50","323102","0.0-6.0-1.14","LF","xtld2mlddm","1280","720","de","ek05an20","null","","","","","","","","learning/Slide15.JPG","null","","","","",""
"","html-keyboard-response","51","324106","0.0-6.0-2.14","LF","xtld2mlddm","1280","720","de","ek05an20","null","","","","learningBlock1","","","","<div style=""font-size:60px;""> </div>","null","LF","learning/Slide15.JPG","This is a tob:","",""
"","html-keyboard-response","52","325118","0.0-6.0-0.15","LF","xtld2mlddm","1280","720","de","ek05an20","null","","","","learningBlock1","","","","This is a dep:","null","","","","",""
"","image-keyboard-response","53","325448","0.0-6.0-1.15","LF","xtld2mlddm","1280","720","de","ek05an20","null","","","","","","","","learning/Slide16.JPG","null","","","","",""
"","html-keyboard-response","54","326454","0.0-6.0-2.15","LF","xtld2mlddm","1280","720","de","ek05an20","null","","","","learningBlock1","","","","<div style=""font-size:60px;""> </div>","null","LF","learning/Slide16.JPG","This is a dep:","",""
"","html-keyboard-response","55","327467","0.0-6.0-0.16","LF","xtld2mlddm","1280","720","de","ek05an20","null","","","","learningBlock1","","","","This is a bim:","null","","","","",""
"","image-keyboard-response","56","327796","0.0-6.0-1.16","LF","xtld2mlddm","1280","720","de","ek05an20","null","","","","","","","","learning/Slide17.JPG","null","","","","",""
"","html-keyboard-response","57","328801","0.0-6.0-2.16","LF","xtld2mlddm","1280","720","de","ek05an20","null","","","","learningBlock1","","","","<div style=""font-size:60px;""> </div>","null","LF","learning/Slide17.JPG","This is a bim:","",""
"","html-keyboard-response","58","329813","0.0-6.0-0.17","LF","xtld2mlddm","1280","720","de","ek05an20","null","","","","learningBlock1","","","","This is a tob:","null","","","","",""
"","image-keyboard-response","59","330152","0.0-6.0-1.17","LF","xtld2mlddm","1280","720","de","ek05an20","null","","","","","","","","learning/Slide18.JPG","null","","","","",""
"","html-keyboard-response","60","331163","0.0-6.0-2.17","LF","xtld2mlddm","1280","720","de","ek05an20","null","","","","learningBlock1","","","","<div style=""font-size:60px;""> </div>","null","LF","learning/Slide18.JPG","This is a tob:","",""
"","html-keyboard-response","61","332175","0.0-6.0-0.18","LF","xtld2mlddm","1280","720","de","ek05an20","null","","","","learningBlock1","","","","This is a wug:","null","","","","",""
"","image-keyboard-response","62","332512","0.0-6.0-1.18","LF","xtld2mlddm","1280","720","de","ek05an20","null","","","","","","","","learning/Slide19.JPG","null","","","","",""
"","html-keyboard-response","63","333523","0.0-6.0-2.18","LF","xtld2mlddm","1280","720","de","ek05an20","null","","","","learningBlock1","","","","<div style=""font-size:60px;""> </div>","null","LF","learning/Slide19.JPG","This is a wug:","",""
"","html-keyboard-response","64","334535","0.0-6.0-0.19","LF","xtld2mlddm","1280","720","de","ek05an20","null","","","","learningBlock1","","","","This is a bim:","null","","","","",""
"","image-keyboard-response","65","334864","0.0-6.0-1.19","LF","xtld2mlddm","1280","720","de","ek05an20","null","","","","","","","","learning/Slide20.JPG","null","","","","",""
"","html-keyboard-response","66","335867","0.0-6.0-2.19","LF","xtld2mlddm","1280","720","de","ek05an20","null","","","","learningBlock1","","","","<div style=""font-size:60px;""> </div>","null","LF","learning/Slide20.JPG","This is a bim:","",""
"","html-keyboard-response","67","336880","0.0-6.0-0.20","LF","xtld2mlddm","1280","720","de","ek05an20","null","","","","learningBlock1","","","","This is a dep:","null","","","","",""
"","image-keyboard-response","68","337217","0.0-6.0-1.20","LF","xtld2mlddm","1280","720","de","ek05an20","null","","","","","","","","learning/Slide21.JPG","null","","","","",""
"","html-keyboard-response","69","338228","0.0-6.0-2.20","LF","xtld2mlddm","1280","720","de","ek05an20","null","","","","learningBlock1","","","","<div style=""font-size:60px;""> </div>","null","LF","learning/Slide21.JPG","This is a dep:","",""
"","html-keyboard-response","70","339240","0.0-6.0-0.21","LF","xtld2mlddm","1280","720","de","ek05an20","null","","","","learningBlock1","","","","This is a bim:","null","","","","",""
"","image-keyboard-response","71","339576","0.0-6.0-1.21","LF","xtld2mlddm","1280","720","de","ek05an20","null","","","","","","","","learning/Slide22.JPG","null","","","","",""
"","html-keyboard-response","72","340589","0.0-6.0-2.21","LF","xtld2mlddm","1280","720","de","ek05an20","null","","","","learningBlock1","","","","<div style=""font-size:60px;""> </div>","null","LF","learning/Slide22.JPG","This is a bim:","",""
"","html-keyboard-response","73","341602","0.0-6.0-0.22","LF","xtld2mlddm","1280","720","de","ek05an20","null","","","","learningBlock1","","","","This is a tob:","null","","","","",""
"","image-keyboard-response","74","341939","0.0-6.0-1.22","LF","xtld2mlddm","1280","720","de","ek05an20","null","","","","","","","","learning/Slide23.JPG","null","","","","",""
"","html-keyboard-response","75","342951","0.0-6.0-2.22","LF","xtld2mlddm","1280","720","de","ek05an20","null","","","","learningBlock1","","","","<div style=""font-size:60px;""> </div>","null","LF","learning/Slide23.JPG","This is a tob:","",""
"","html-keyboard-response","76","343964","0.0-6.0-0.23","LF","xtld2mlddm","1280","720","de","ek05an20","null","","","","learningBlock1","","","","This is a wug:","null","","","","",""
"","image-keyboard-response","77","344293","0.0-6.0-1.23","LF","xtld2mlddm","1280","720","de","ek05an20","null","","","","","","","","learning/Slide24.JPG","null","","","","",""
"","html-keyboard-response","78","345300","0.0-6.0-2.23","LF","xtld2mlddm","1280","720","de","ek05an20","null","","","","learningBlock1","","","","<div style=""font-size:60px;""> </div>","null","LF","learning/Slide24.JPG","This is a wug:","",""
"","html-keyboard-response","79","346313","0.0-6.0-0.24","LF","xtld2mlddm","1280","720","de","ek05an20","null","","","","learningBlock1","","","","This is a dep:","null","","","","",""
"","image-keyboard-response","80","346644","0.0-6.0-1.24","LF","xtld2mlddm","1280","720","de","ek05an20","null","","","","","","","","learning/Slide25.JPG","null","","","","",""
"","html-keyboard-response","81","347649","0.0-6.0-2.24","LF","xtld2mlddm","1280","720","de","ek05an20","null","","","","learningBlock1","","","","<div style=""font-size:60px;""> </div>","null","LF","learning/Slide25.JPG","This is a dep:","",""
"","html-keyboard-response","82","348651","0.0-6.0-0.25","LF","xtld2mlddm","1280","720","de","ek05an20","null","","","","learningBlock1","","","","This is a wug:","null","","","","",""
"","image-keyboard-response","83","348990","0.0-6.0-1.25","LF","xtld2mlddm","1280","720","de","ek05an20","null","","","","","","","","learning/Slide26.JPG","null","","","","",""
"","html-keyboard-response","84","349997","0.0-6.0-2.25","LF","xtld2mlddm","1280","720","de","ek05an20","null","","","","learningBlock1","","","","<div style=""font-size:60px;""> </div>","null","LF","learning/Slide26.JPG","This is a wug:","",""
"","html-keyboard-response","85","351009","0.0-6.0-0.26","LF","xtld2mlddm","1280","720","de","ek05an20","null","","","","learningBlock1","","","","This is a bim:","null","","","","",""
"","image-keyboard-response","86","351338","0.0-6.0-1.26","LF","xtld2mlddm","1280","720","de","ek05an20","null","","","","","","","","learning/Slide27.JPG","null","","","","",""
"","html-keyboard-response","87","352345","0.0-6.0-2.26","LF","xtld2mlddm","1280","720","de","ek05an20","null","","","","learningBlock1","","","","<div style=""font-size:60px;""> </div>","null","LF","learning/Slide27.JPG","This is a bim:","",""
"","html-keyboard-response","88","353358","0.0-6.0-0.27","LF","xtld2mlddm","1280","720","de","ek05an20","null","","","","learningBlock1","","","","This is a dep:","null","","","","",""
"","image-keyboard-response","89","353687","0.0-6.0-1.27","LF","xtld2mlddm","1280","720","de","ek05an20","null","","","","","","","","learning/Slide28.JPG","null","","","","",""
"","html-keyboard-response","90","354691","0.0-6.0-2.27","LF","xtld2mlddm","1280","720","de","ek05an20","null","","","","learningBlock1","","","","<div style=""font-size:60px;""> </div>","null","LF","learning/Slide28.JPG","This is a dep:","",""
"","html-keyboard-response","91","355702","0.0-6.0-0.28","LF","xtld2mlddm","1280","720","de","ek05an20","null","","","","learningBlock1","","","","This is a tob:","null","","","","",""
"","image-keyboard-response","92","356042","0.0-6.0-1.28","LF","xtld2mlddm","1280","720","de","ek05an20","null","","","","","","","","learning/Slide29.JPG","null","","","","",""
"","html-keyboard-response","93","357055","0.0-6.0-2.28","LF","xtld2mlddm","1280","720","de","ek05an20","null","","","","learningBlock1","","","","<div style=""font-size:60px;""> </div>","null","LF","learning/Slide29.JPG","This is a tob:","",""
"","html-keyboard-response","94","358067","0.0-6.0-0.29","LF","xtld2mlddm","1280","720","de","ek05an20","null","","","","learningBlock1","","","","This is a dep:","null","","","","",""
"","image-keyboard-response","95","358397","0.0-6.0-1.29","LF","xtld2mlddm","1280","720","de","ek05an20","null","","","","","","","","learning/Slide30.JPG","null","","","","",""
"","html-keyboard-response","96","359403","0.0-6.0-2.29","LF","xtld2mlddm","1280","720","de","ek05an20","null","","","","learningBlock1","","","","<div style=""font-size:60px;""> </div>","null","LF","learning/Slide30.JPG","This is a dep:","",""
"","html-keyboard-response","97","360415","0.0-6.0-0.30","LF","xtld2mlddm","1280","720","de","ek05an20","null","","","","learningBlock1","","","","This is a wug:","null","","","","",""
"","image-keyboard-response","98","360744","0.0-6.0-1.30","LF","xtld2mlddm","1280","720","de","ek05an20","null","","","","","","","","learning/Slide31.JPG","null","","","","",""
"","html-keyboard-response","99","361750","0.0-6.0-2.30","LF","xtld2mlddm","1280","720","de","ek05an20","null","","","","learningBlock1","","","","<div style=""font-size:60px;""> </div>","null","LF","learning/Slide31.JPG","This is a wug:","",""
"","html-keyboard-response","100","362762","0.0-6.0-0.31","LF","xtld2mlddm","1280","720","de","ek05an20","null","","","","learningBlock1","","","","This is a tob:","null","","","","",""
"","image-keyboard-response","101","363101","0.0-6.0-1.31","LF","xtld2mlddm","1280","720","de","ek05an20","null","","","","","","","","learning/Slide32.JPG","null","","","","",""
"","html-keyboard-response","102","364114","0.0-6.0-2.31","LF","xtld2mlddm","1280","720","de","ek05an20","null","","","","learningBlock1","","","","<div style=""font-size:60px;""> </div>","null","LF","learning/Slide32.JPG","This is a tob:","",""
"","html-keyboard-response","103","365126","0.0-6.0-0.32","LF","xtld2mlddm","1280","720","de","ek05an20","null","","","","learningBlock1","","","","This is a bim:","null","","","","",""
"","image-keyboard-response","104","365456","0.0-6.0-1.32","LF","xtld2mlddm","1280","720","de","ek05an20","null","","","","","","","","learning/Slide33.JPG","null","","","","",""
"","html-keyboard-response","105","366459","0.0-6.0-2.32","LF","xtld2mlddm","1280","720","de","ek05an20","null","","","","learningBlock1","","","","<div style=""font-size:60px;""> </div>","null","LF","learning/Slide33.JPG","This is a bim:","",""
"","html-keyboard-response","106","367472","0.0-6.0-0.33","LF","xtld2mlddm","1280","720","de","ek05an20","null","","","","learningBlock1","","","","This is a tob:","null","","","","",""
"","image-keyboard-response","107","367810","0.0-6.0-1.33","LF","xtld2mlddm","1280","720","de","ek05an20","null","","","","","","","","learning/Slide34.JPG","null","","","","",""
"","html-keyboard-response","108","368821","0.0-6.0-2.33","LF","xtld2mlddm","1280","720","de","ek05an20","null","","","","learningBlock1","","","","<div style=""font-size:60px;""> </div>","null","LF","learning/Slide34.JPG","This is a tob:","",""
"","html-keyboard-response","109","369835","0.0-6.0-0.34","LF","xtld2mlddm","1280","720","de","ek05an20","null","","","","learningBlock1","","","","This is a bim:","null","","","","",""
"","image-keyboard-response","110","370162","0.0-6.0-1.34","LF","xtld2mlddm","1280","720","de","ek05an20","null","","","","","","","","learning/Slide35.JPG","null","","","","",""
"","html-keyboard-response","111","371169","0.0-6.0-2.34","LF","xtld2mlddm","1280","720","de","ek05an20","null","","","","learningBlock1","","","","<div style=""font-size:60px;""> </div>","null","LF","learning/Slide35.JPG","This is a bim:","",""
"","html-keyboard-response","112","372180","0.0-6.0-0.35","LF","xtld2mlddm","1280","720","de","ek05an20","null","","","","learningBlock1","","","","This is a dep:","null","","","","",""
"","image-keyboard-response","113","372509","0.0-6.0-1.35","LF","xtld2mlddm","1280","720","de","ek05an20","null","","","","","","","","learning/Slide36.JPG","null","","","","",""
"","html-keyboard-response","114","373513","0.0-6.0-2.35","LF","xtld2mlddm","1280","720","de","ek05an20","null","","","","learningBlock1","","","","<div style=""font-size:60px;""> </div>","null","LF","learning/Slide36.JPG","This is a dep:","",""
"","html-keyboard-response","115","374526","0.0-6.0-0.36","LF","xtld2mlddm","1280","720","de","ek05an20","null","","","","learningBlock1","","","","This is a tob:","null","","","","",""
"","image-keyboard-response","116","374856","0.0-6.0-1.36","LF","xtld2mlddm","1280","720","de","ek05an20","null","","","","","","","","learning/Slide37.JPG","null","","","","",""
"","html-keyboard-response","117","375861","0.0-6.0-2.36","LF","xtld2mlddm","1280","720","de","ek05an20","null","","","","learningBlock1","","","","<div style=""font-size:60px;""> </div>","null","LF","learning/Slide37.JPG","This is a tob:","",""
"","html-keyboard-response","118","376874","0.0-6.0-0.37","LF","xtld2mlddm","1280","720","de","ek05an20","null","","","","learningBlock1","","","","This is a wug:","null","","","","",""
"","image-keyboard-response","119","377213","0.0-6.0-1.37","LF","xtld2mlddm","1280","720","de","ek05an20","null","","","","","","","","learning/Slide38.JPG","null","","","","",""
"","html-keyboard-response","120","378224","0.0-6.0-2.37","LF","xtld2mlddm","1280","720","de","ek05an20","null","","","","learningBlock1","","","","<div style=""font-size:60px;""> </div>","null","LF","learning/Slide38.JPG","This is a wug:","",""
"","html-keyboard-response","121","379236","0.0-6.0-0.38","LF","xtld2mlddm","1280","720","de","ek05an20","null","","","","learningBlock1","","","","This is a bim:","null","","","","",""
"","image-keyboard-response","122","379563","0.0-6.0-1.38","LF","xtld2mlddm","1280","720","de","ek05an20","null","","","","","","","","learning/Slide39.JPG","null","","","","",""
"","html-keyboard-response","123","380574","0.0-6.0-2.38","LF","xtld2mlddm","1280","720","de","ek05an20","null","","","","learningBlock1","","","","<div style=""font-size:60px;""> </div>","null","LF","learning/Slide39.JPG","This is a bim:","",""
"","html-keyboard-response","124","381587","0.0-6.0-0.39","LF","xtld2mlddm","1280","720","de","ek05an20","null","","","","learningBlock1","","","","This is a tob:","null","","","","",""
"","image-keyboard-response","125","381917","0.0-6.0-1.39","LF","xtld2mlddm","1280","720","de","ek05an20","null","","","","","","","","learning/Slide40.JPG","null","","","","",""
"","html-keyboard-response","126","382922","0.0-6.0-2.39","LF","xtld2mlddm","1280","720","de","ek05an20","null","","","","learningBlock1","","","","<div style=""font-size:60px;""> </div>","null","LF","learning/Slide40.JPG","This is a tob:","",""
"","html-keyboard-response","127","383935","0.0-6.0-0.40","LF","xtld2mlddm","1280","720","de","ek05an20","null","","","","learningBlock1","","","","This is a bim:","null","","","","",""
"","image-keyboard-response","128","384263","0.0-6.0-1.40","LF","xtld2mlddm","1280","720","de","ek05an20","null","","","","","","","","learning/Slide41.JPG","null","","","","",""
"","html-keyboard-response","129","385270","0.0-6.0-2.40","LF","xtld2mlddm","1280","720","de","ek05an20","null","","","","learningBlock1","","","","<div style=""font-size:60px;""> </div>","null","LF","learning/Slide41.JPG","This is a bim:","",""
"","html-keyboard-response","130","386274","0.0-6.0-0.41","LF","xtld2mlddm","1280","720","de","ek05an20","null","","","","learningBlock1","","","","This is a dep:","null","","","","",""
"","image-keyboard-response","131","386607","0.0-6.0-1.41","LF","xtld2mlddm","1280","720","de","ek05an20","null","","","","","","","","learning/Slide42.JPG","null","","","","",""
"","html-keyboard-response","132","387613","0.0-6.0-2.41","LF","xtld2mlddm","1280","720","de","ek05an20","null","","","","learningBlock1","","","","<div style=""font-size:60px;""> </div>","null","LF","learning/Slide42.JPG","This is a dep:","",""
"","html-keyboard-response","133","388624","0.0-6.0-0.42","LF","xtld2mlddm","1280","720","de","ek05an20","null","","","","learningBlock1","","","","This is a wug:","null","","","","",""
"","image-keyboard-response","134","388954","0.0-6.0-1.42","LF","xtld2mlddm","1280","720","de","ek05an20","null","","","","","","","","learning/Slide43.JPG","null","","","","",""
"","html-keyboard-response","135","389968","0.0-6.0-2.42","LF","xtld2mlddm","1280","720","de","ek05an20","null","","","","learningBlock1","","","","<div style=""font-size:60px;""> </div>","null","LF","learning/Slide43.JPG","This is a wug:","",""
"","html-keyboard-response","136","390984","0.0-6.0-0.43","LF","xtld2mlddm","1280","720","de","ek05an20","null","","","","learningBlock1","","","","This is a bim:","null","","","","",""
"","image-keyboard-response","137","391315","0.0-6.0-1.43","LF","xtld2mlddm","1280","720","de","ek05an20","null","","","","","","","","learning/Slide44.JPG","null","","","","",""
"","html-keyboard-response","138","392326","0.0-6.0-2.43","LF","xtld2mlddm","1280","720","de","ek05an20","null","","","","learningBlock1","","","","<div style=""font-size:60px;""> </div>","null","LF","learning/Slide44.JPG","This is a bim:","",""
"","html-keyboard-response","139","393334","0.0-6.0-0.44","LF","xtld2mlddm","1280","720","de","ek05an20","null","","","","learningBlock1","","","","This is a wug:","null","","","","",""
"","image-keyboard-response","140","393668","0.0-6.0-1.44","LF","xtld2mlddm","1280","720","de","ek05an20","null","","","","","","","","learning/Slide45.JPG","null","","","","",""
"","html-keyboard-response","141","394673","0.0-6.0-2.44","LF","xtld2mlddm","1280","720","de","ek05an20","null","","","","learningBlock1","","","","<div style=""font-size:60px;""> </div>","null","LF","learning/Slide45.JPG","This is a wug:","",""
"","html-keyboard-response","142","395685","0.0-6.0-0.45","LF","xtld2mlddm","1280","720","de","ek05an20","null","","","","learningBlock1","","","","This is a dep:","null","","","","",""
"","image-keyboard-response","143","396014","0.0-6.0-1.45","LF","xtld2mlddm","1280","720","de","ek05an20","null","","","","","","","","learning/Slide46.JPG","null","","","","",""
"","html-keyboard-response","144","397018","0.0-6.0-2.45","LF","xtld2mlddm","1280","720","de","ek05an20","null","","","","learningBlock1","","","","<div style=""font-size:60px;""> </div>","null","LF","learning/Slide46.JPG","This is a dep:","",""
"","html-keyboard-response","145","398030","0.0-6.0-0.46","LF","xtld2mlddm","1280","720","de","ek05an20","null","","","","learningBlock1","","","","This is a tob:","null","","","","",""
"","image-keyboard-response","146","398370","0.0-6.0-1.46","LF","xtld2mlddm","1280","720","de","ek05an20","null","","","","","","","","learning/Slide47.JPG","null","","","","",""
"","html-keyboard-response","147","399382","0.0-6.0-2.46","LF","xtld2mlddm","1280","720","de","ek05an20","null","","","","learningBlock1","","","","<div style=""font-size:60px;""> </div>","null","LF","learning/Slide47.JPG","This is a tob:","",""
"","html-keyboard-response","148","400394","0.0-6.0-0.47","LF","xtld2mlddm","1280","720","de","ek05an20","null","","","","learningBlock1","","","","This is a bim:","null","","","","",""
"","image-keyboard-response","149","400723","0.0-6.0-1.47","LF","xtld2mlddm","1280","720","de","ek05an20","null","","","","","","","","learning/Slide48.JPG","null","","","","",""
"","html-keyboard-response","150","401731","0.0-6.0-2.47","LF","xtld2mlddm","1280","720","de","ek05an20","null","","","","learningBlock1","","","","<div style=""font-size:60px;""> </div>","null","LF","learning/Slide48.JPG","This is a bim:","",""
"","html-keyboard-response","151","402731","0.0-6.0-0.48","LF","xtld2mlddm","1280","720","de","ek05an20","null","","","","learningBlock1","","","","This is a dep:","null","","","","",""
"","image-keyboard-response","152","403059","0.0-6.0-1.48","LF","xtld2mlddm","1280","720","de","ek05an20","null","","","","","","","","learning/Slide49.JPG","null","","","","",""
"","html-keyboard-response","153","404060","0.0-6.0-2.48","LF","xtld2mlddm","1280","720","de","ek05an20","null","","","","learningBlock1","","","","<div style=""font-size:60px;""> </div>","null","LF","learning/Slide49.JPG","This is a dep:","",""
"","html-keyboard-response","154","405061","0.0-6.0-0.49","LF","xtld2mlddm","1280","720","de","ek05an20","null","","","","learningBlock1","","","","This is a tob:","null","","","","",""
"","image-keyboard-response","155","405402","0.0-6.0-1.49","LF","xtld2mlddm","1280","720","de","ek05an20","null","","","","","","","","learning/Slide50.JPG","null","","","","",""
"","html-keyboard-response","156","406403","0.0-6.0-2.49","LF","xtld2mlddm","1280","720","de","ek05an20","null","","","","learningBlock1","","","","<div style=""font-size:60px;""> </div>","null","LF","learning/Slide50.JPG","This is a tob:","",""
"","html-keyboard-response","157","407407","0.0-6.0-0.50","LF","xtld2mlddm","1280","720","de","ek05an20","null","","","","learningBlock1","","","","This is a bim:","null","","","","",""
"","image-keyboard-response","158","407735","0.0-6.0-1.50","LF","xtld2mlddm","1280","720","de","ek05an20","null","","","","","","","","learning/Slide51.JPG","null","","","","",""
"","html-keyboard-response","159","408736","0.0-6.0-2.50","LF","xtld2mlddm","1280","720","de","ek05an20","null","","","","learningBlock1","","","","<div style=""font-size:60px;""> </div>","null","LF","learning/Slide51.JPG","This is a bim:","",""
"","html-keyboard-response","160","409737","0.0-6.0-0.51","LF","xtld2mlddm","1280","720","de","ek05an20","null","","","","learningBlock1","","","","This is a wug:","null","","","","",""
"","image-keyboard-response","161","410086","0.0-6.0-1.51","LF","xtld2mlddm","1280","720","de","ek05an20","null","","","","","","","","learning/Slide52.JPG","null","","","","",""
"","html-keyboard-response","162","411099","0.0-6.0-2.51","LF","xtld2mlddm","1280","720","de","ek05an20","null","","","","learningBlock1","","","","<div style=""font-size:60px;""> </div>","null","LF","learning/Slide52.JPG","This is a wug:","",""
"","html-keyboard-response","163","412111","0.0-6.0-0.52","LF","xtld2mlddm","1280","720","de","ek05an20","null","","","","learningBlock1","","","","This is a tob:","null","","","","",""
"","image-keyboard-response","164","412450","0.0-6.0-1.52","LF","xtld2mlddm","1280","720","de","ek05an20","null","","","","","","","","learning/Slide53.JPG","null","","","","",""
"","html-keyboard-response","165","413462","0.0-6.0-2.52","LF","xtld2mlddm","1280","720","de","ek05an20","null","","","","learningBlock1","","","","<div style=""font-size:60px;""> </div>","null","LF","learning/Slide53.JPG","This is a tob:","",""
"","html-keyboard-response","166","414475","0.0-6.0-0.53","LF","xtld2mlddm","1280","720","de","ek05an20","null","","","","learningBlock1","","","","This is a dep:","null","","","","",""
"","image-keyboard-response","167","414813","0.0-6.0-1.53","LF","xtld2mlddm","1280","720","de","ek05an20","null","","","","","","","","learning/Slide54.JPG","null","","","","",""
"","html-keyboard-response","168","415822","0.0-6.0-2.53","LF","xtld2mlddm","1280","720","de","ek05an20","null","","","","learningBlock1","","","","<div style=""font-size:60px;""> </div>","null","LF","learning/Slide54.JPG","This is a dep:","",""
"","html-keyboard-response","169","416836","0.0-6.0-0.54","LF","xtld2mlddm","1280","720","de","ek05an20","null","","","","learningBlock1","","","","This is a bim:","null","","","","",""
"","image-keyboard-response","170","417167","0.0-6.0-1.54","LF","xtld2mlddm","1280","720","de","ek05an20","null","","","","","","","","learning/Slide55.JPG","null","","","","",""
"","html-keyboard-response","171","418172","0.0-6.0-2.54","LF","xtld2mlddm","1280","720","de","ek05an20","null","","","","learningBlock1","","","","<div style=""font-size:60px;""> </div>","null","LF","learning/Slide55.JPG","This is a bim:","",""
"","html-keyboard-response","172","419184","0.0-6.0-0.55","LF","xtld2mlddm","1280","720","de","ek05an20","null","","","","learningBlock1","","","","This is a tob:","null","","","","",""
"","image-keyboard-response","173","419513","0.0-6.0-1.55","LF","xtld2mlddm","1280","720","de","ek05an20","null","","","","","","","","learning/Slide56.JPG","null","","","","",""
"","html-keyboard-response","174","420520","0.0-6.0-2.55","LF","xtld2mlddm","1280","720","de","ek05an20","null","","","","learningBlock1","","","","<div style=""font-size:60px;""> </div>","null","LF","learning/Slide56.JPG","This is a tob:","",""
"","html-keyboard-response","175","421533","0.0-6.0-0.56","LF","xtld2mlddm","1280","720","de","ek05an20","null","","","","learningBlock1","","","","This is a dep:","null","","","","",""
"","image-keyboard-response","176","421871","0.0-6.0-1.56","LF","xtld2mlddm","1280","720","de","ek05an20","null","","","","","","","","learning/Slide57.JPG","null","","","","",""
"","html-keyboard-response","177","422882","0.0-6.0-2.56","LF","xtld2mlddm","1280","720","de","ek05an20","null","","","","learningBlock1","","","","<div style=""font-size:60px;""> </div>","null","LF","learning/Slide57.JPG","This is a dep:","",""
"","html-keyboard-response","178","423894","0.0-6.0-0.57","LF","xtld2mlddm","1280","720","de","ek05an20","null","","","","learningBlock1","","","","This is a wug:","null","","","","",""
"","image-keyboard-response","179","424231","0.0-6.0-1.57","LF","xtld2mlddm","1280","720","de","ek05an20","null","","","","","","","","learning/Slide58.JPG","null","","","","",""
"","html-keyboard-response","180","425242","0.0-6.0-2.57","LF","xtld2mlddm","1280","720","de","ek05an20","null","","","","learningBlock1","","","","<div style=""font-size:60px;""> </div>","null","LF","learning/Slide58.JPG","This is a wug:","",""
"","html-keyboard-response","181","426255","0.0-6.0-0.58","LF","xtld2mlddm","1280","720","de","ek05an20","null","","","","learningBlock1","","","","This is a dep:","null","","","","",""
"","image-keyboard-response","182","426594","0.0-6.0-1.58","LF","xtld2mlddm","1280","720","de","ek05an20","null","","","","","","","","learning/Slide59.JPG","null","","","","",""
"","html-keyboard-response","183","427598","0.0-6.0-2.58","LF","xtld2mlddm","1280","720","de","ek05an20","null","","","","learningBlock1","","","","<div style=""font-size:60px;""> </div>","null","LF","learning/Slide59.JPG","This is a dep:","",""
"","html-keyboard-response","184","428609","0.0-6.0-0.59","LF","xtld2mlddm","1280","720","de","ek05an20","null","","","","learningBlock1","","","","This is a wug:","null","","","","",""
"","image-keyboard-response","185","428939","0.0-6.0-1.59","LF","xtld2mlddm","1280","720","de","ek05an20","null","","","","","","","","learning/Slide60.JPG","null","","","","",""
"","html-keyboard-response","186","429946","0.0-6.0-2.59","LF","xtld2mlddm","1280","720","de","ek05an20","null","","","","learningBlock1","","","","<div style=""font-size:60px;""> </div>","null","LF","learning/Slide60.JPG","This is a wug:","",""
"","html-keyboard-response","187","430958","0.0-6.0-0.60","LF","xtld2mlddm","1280","720","de","ek05an20","null","","","","learningBlock1","","","","This is a bim:","null","","","","",""
"","image-keyboard-response","188","431296","0.0-6.0-1.60","LF","xtld2mlddm","1280","720","de","ek05an20","null","","","","","","","","learning/Slide61.JPG","null","","","","",""
"","html-keyboard-response","189","432308","0.0-6.0-2.60","LF","xtld2mlddm","1280","720","de","ek05an20","null","","","","learningBlock1","","","","<div style=""font-size:60px;""> </div>","null","LF","learning/Slide61.JPG","This is a bim:","",""
"","html-keyboard-response","190","433321","0.0-6.0-0.61","LF","xtld2mlddm","1280","720","de","ek05an20","null","","","","learningBlock1","","","","This is a dep:","null","","","","",""
"","image-keyboard-response","191","433660","0.0-6.0-1.61","LF","xtld2mlddm","1280","720","de","ek05an20","null","","","","","","","","learning/Slide62.JPG","null","","","","",""
"","html-keyboard-response","192","434673","0.0-6.0-2.61","LF","xtld2mlddm","1280","720","de","ek05an20","null","","","","learningBlock1","","","","<div style=""font-size:60px;""> </div>","null","LF","learning/Slide62.JPG","This is a dep:","",""
"","html-keyboard-response","193","435686","0.0-6.0-0.62","LF","xtld2mlddm","1280","720","de","ek05an20","null","","","","learningBlock1","","","","This is a bim:","null","","","","",""
"","image-keyboard-response","194","436013","0.0-6.0-1.62","LF","xtld2mlddm","1280","720","de","ek05an20","null","","","","","","","","learning/Slide63.JPG","null","","","","",""
"","html-keyboard-response","195","437020","0.0-6.0-2.62","LF","xtld2mlddm","1280","720","de","ek05an20","null","","","","learningBlock1","","","","<div style=""font-size:60px;""> </div>","null","LF","learning/Slide63.JPG","This is a bim:","",""
"","html-keyboard-response","196","438023","0.0-6.0-0.63","LF","xtld2mlddm","1280","720","de","ek05an20","null","","","","learningBlock1","","","","This is a tob:","null","","","","",""
"","image-keyboard-response","197","438357","0.0-6.0-1.63","LF","xtld2mlddm","1280","720","de","ek05an20","null","","","","","","","","learning/Slide64.JPG","null","","","","",""
"","html-keyboard-response","198","439360","0.0-6.0-2.63","LF","xtld2mlddm","1280","720","de","ek05an20","null","","","","learningBlock1","","","","<div style=""font-size:60px;""> </div>","null","LF","learning/Slide64.JPG","This is a tob:","",""
"","html-keyboard-response","199","440361","0.0-6.0-0.64","LF","xtld2mlddm","1280","720","de","ek05an20","null","","","","learningBlock1","","","","This is a wug:","null","","","","",""
"","image-keyboard-response","200","440711","0.0-6.0-1.64","LF","xtld2mlddm","1280","720","de","ek05an20","null","","","","","","","","learning/Slide65.JPG","null","","","","",""
"","html-keyboard-response","201","441722","0.0-6.0-2.64","LF","xtld2mlddm","1280","720","de","ek05an20","null","","","","learningBlock1","","","","<div style=""font-size:60px;""> </div>","null","LF","learning/Slide65.JPG","This is a wug:","",""
"","html-keyboard-response","202","442725","0.0-6.0-0.65","LF","xtld2mlddm","1280","720","de","ek05an20","null","","","","learningBlock1","","","","This is a dep:","null","","","","",""
"","image-keyboard-response","203","443063","0.0-6.0-1.65","LF","xtld2mlddm","1280","720","de","ek05an20","null","","","","","","","","learning/Slide66.JPG","null","","","","",""
"","html-keyboard-response","204","444076","0.0-6.0-2.65","LF","xtld2mlddm","1280","720","de","ek05an20","null","","","","learningBlock1","","","","<div style=""font-size:60px;""> </div>","null","LF","learning/Slide66.JPG","This is a dep:","",""
"","html-keyboard-response","205","445086","0.0-6.0-0.66","LF","xtld2mlddm","1280","720","de","ek05an20","null","","","","learningBlock1","","","","This is a tob:","null","","","","",""
"","image-keyboard-response","206","445425","0.0-6.0-1.66","LF","xtld2mlddm","1280","720","de","ek05an20","null","","","","","","","","learning/Slide67.JPG","null","","","","",""
"","html-keyboard-response","207","446437","0.0-6.0-2.66","LF","xtld2mlddm","1280","720","de","ek05an20","null","","","","learningBlock1","","","","<div style=""font-size:60px;""> </div>","null","LF","learning/Slide67.JPG","This is a tob:","",""
"","html-keyboard-response","208","447449","0.0-6.0-0.67","LF","xtld2mlddm","1280","720","de","ek05an20","null","","","","learningBlock1","","","","This is a wug:","null","","","","",""
"","image-keyboard-response","209","447787","0.0-6.0-1.67","LF","xtld2mlddm","1280","720","de","ek05an20","null","","","","","","","","learning/Slide68.JPG","null","","","","",""
"","html-keyboard-response","210","448800","0.0-6.0-2.67","LF","xtld2mlddm","1280","720","de","ek05an20","null","","","","learningBlock1","","","","<div style=""font-size:60px;""> </div>","null","LF","learning/Slide68.JPG","This is a wug:","",""
"","html-keyboard-response","211","449814","0.0-6.0-0.68","LF","xtld2mlddm","1280","720","de","ek05an20","null","","","","learningBlock1","","","","This is a tob:","null","","","","",""
"","image-keyboard-response","212","450141","0.0-6.0-1.68","LF","xtld2mlddm","1280","720","de","ek05an20","null","","","","","","","","learning/Slide69.JPG","null","","","","",""
"","html-keyboard-response","213","451147","0.0-6.0-2.68","LF","xtld2mlddm","1280","720","de","ek05an20","null","","","","learningBlock1","","","","<div style=""font-size:60px;""> </div>","null","LF","learning/Slide69.JPG","This is a tob:","",""
"","html-keyboard-response","214","452160","0.0-6.0-0.69","LF","xtld2mlddm","1280","720","de","ek05an20","null","","","","learningBlock1","","","","This is a dep:","null","","","","",""
"","image-keyboard-response","215","452489","0.0-6.0-1.69","LF","xtld2mlddm","1280","720","de","ek05an20","null","","","","","","","","learning/Slide70.JPG","null","","","","",""
"","html-keyboard-response","216","453494","0.0-6.0-2.69","LF","xtld2mlddm","1280","720","de","ek05an20","null","","","","learningBlock1","","","","<div style=""font-size:60px;""> </div>","null","LF","learning/Slide70.JPG","This is a dep:","",""
"","html-keyboard-response","217","454495","0.0-6.0-0.70","LF","xtld2mlddm","1280","720","de","ek05an20","null","","","","learningBlock1","","","","This is a wug:","null","","","","",""
"","image-keyboard-response","218","454821","0.0-6.0-1.70","LF","xtld2mlddm","1280","720","de","ek05an20","null","","","","","","","","learning/Slide71.JPG","null","","","","",""
"","html-keyboard-response","219","455826","0.0-6.0-2.70","LF","xtld2mlddm","1280","720","de","ek05an20","null","","","","learningBlock1","","","","<div style=""font-size:60px;""> </div>","null","LF","learning/Slide71.JPG","This is a wug:","",""
"","html-keyboard-response","220","456840","0.0-6.0-0.71","LF","xtld2mlddm","1280","720","de","ek05an20","null","","","","learningBlock1","","","","This is a bim:","null","","","","",""
"","image-keyboard-response","221","457167","0.0-6.0-1.71","LF","xtld2mlddm","1280","720","de","ek05an20","null","","","","","","","","learning/Slide72.JPG","null","","","","",""
"","html-keyboard-response","222","458175","0.0-6.0-2.71","LF","xtld2mlddm","1280","720","de","ek05an20","null","","","","learningBlock1","","","","<div style=""font-size:60px;""> </div>","null","LF","learning/Slide72.JPG","This is a bim:","",""
"","html-keyboard-response","223","459187","0.0-6.0-0.72","LF","xtld2mlddm","1280","720","de","ek05an20","null","","","","learningBlock1","","","","This is a wug:","null","","","","",""
"","image-keyboard-response","224","459526","0.0-6.0-1.72","LF","xtld2mlddm","1280","720","de","ek05an20","null","","","","","","","","learning/Slide73.JPG","null","","","","",""
"","html-keyboard-response","225","460538","0.0-6.0-2.72","LF","xtld2mlddm","1280","720","de","ek05an20","null","","","","learningBlock1","","","","<div style=""font-size:60px;""> </div>","null","LF","learning/Slide73.JPG","This is a wug:","",""
"","html-keyboard-response","226","461550","0.0-6.0-0.73","LF","xtld2mlddm","1280","720","de","ek05an20","null","","","","learningBlock1","","","","This is a dep:","null","","","","",""
"","image-keyboard-response","227","461879","0.0-6.0-1.73","LF","xtld2mlddm","1280","720","de","ek05an20","null","","","","","","","","learning/Slide74.JPG","null","","","","",""
"","html-keyboard-response","228","462884","0.0-6.0-2.73","LF","xtld2mlddm","1280","720","de","ek05an20","null","","","","learningBlock1","","","","<div style=""font-size:60px;""> </div>","null","LF","learning/Slide74.JPG","This is a dep:","",""
"","html-keyboard-response","229","463897","0.0-6.0-0.74","LF","xtld2mlddm","1280","720","de","ek05an20","null","","","","learningBlock1","","","","This is a tob:","null","","","","",""
"","image-keyboard-response","230","464227","0.0-6.0-1.74","LF","xtld2mlddm","1280","720","de","ek05an20","null","","","","","","","","learning/Slide75.JPG","null","","","","",""
"","html-keyboard-response","231","465232","0.0-6.0-2.74","LF","xtld2mlddm","1280","720","de","ek05an20","null","","","","learningBlock1","","","","<div style=""font-size:60px;""> </div>","null","LF","learning/Slide75.JPG","This is a tob:","",""
"","html-keyboard-response","232","466245","0.0-6.0-0.75","LF","xtld2mlddm","1280","720","de","ek05an20","null","","","","learningBlock1","","","","This is a bim:","null","","","","",""
"","image-keyboard-response","233","466574","0.0-6.0-1.75","LF","xtld2mlddm","1280","720","de","ek05an20","null","","","","","","","","learning/Slide76.JPG","null","","","","",""
"","html-keyboard-response","234","467580","0.0-6.0-2.75","LF","xtld2mlddm","1280","720","de","ek05an20","null","","","","learningBlock1","","","","<div style=""font-size:60px;""> </div>","null","LF","learning/Slide76.JPG","This is a bim:","",""
"","html-keyboard-response","235","468591","0.0-6.0-0.76","LF","xtld2mlddm","1280","720","de","ek05an20","null","","","","learningBlock1","","","","This is a tob:","null","","","","",""
"","image-keyboard-response","236","468929","0.0-6.0-1.76","LF","xtld2mlddm","1280","720","de","ek05an20","null","","","","","","","","learning/Slide77.JPG","null","","","","",""
"","html-keyboard-response","237","469941","0.0-6.0-2.76","LF","xtld2mlddm","1280","720","de","ek05an20","null","","","","learningBlock1","","","","<div style=""font-size:60px;""> </div>","null","LF","learning/Slide77.JPG","This is a tob:","",""
"","html-keyboard-response","238","470942","0.0-6.0-0.77","LF","xtld2mlddm","1280","720","de","ek05an20","null","","","","learningBlock1","","","","This is a wug:","null","","","","",""
"","image-keyboard-response","239","471269","0.0-6.0-1.77","LF","xtld2mlddm","1280","720","de","ek05an20","null","","","","","","","","learning/Slide78.JPG","null","","","","",""
"","html-keyboard-response","240","472273","0.0-6.0-2.77","LF","xtld2mlddm","1280","720","de","ek05an20","null","","","","learningBlock1","","","","<div style=""font-size:60px;""> </div>","null","LF","learning/Slide78.JPG","This is a wug:","",""
"","html-keyboard-response","241","473284","0.0-6.0-0.78","LF","xtld2mlddm","1280","720","de","ek05an20","null","","","","learningBlock1","","","","This is a bim:","null","","","","",""
"","image-keyboard-response","242","473612","0.0-6.0-1.78","LF","xtld2mlddm","1280","720","de","ek05an20","null","","","","","","","","learning/Slide79.JPG","null","","","","",""
"","html-keyboard-response","243","474616","0.0-6.0-2.78","LF","xtld2mlddm","1280","720","de","ek05an20","null","","","","learningBlock1","","","","<div style=""font-size:60px;""> </div>","null","LF","learning/Slide79.JPG","This is a bim:","",""
"","html-keyboard-response","244","475629","0.0-6.0-0.79","LF","xtld2mlddm","1280","720","de","ek05an20","null","","","","learningBlock1","","","","This is a tob:","null","","","","",""
"","image-keyboard-response","245","475968","0.0-6.0-1.79","LF","xtld2mlddm","1280","720","de","ek05an20","null","","","","","","","","learning/Slide80.JPG","null","","","","",""
"","html-keyboard-response","246","476978","0.0-6.0-2.79","LF","xtld2mlddm","1280","720","de","ek05an20","null","","","","learningBlock1","","","","<div style=""font-size:60px;""> </div>","null","LF","learning/Slide80.JPG","This is a tob:","",""
"","instructions","247","481674","0.0-7.0","LF","xtld2mlddm","1280","720","de","ek05an20","NA","","","[{""page_index"":0,""viewing_time"":4694.92000003811}]","instructions","","","","","","","","","",""
"","html-keyboard-response","248","482684","0.0-8.0-0.0","LF","xtld2mlddm","1280","720","de","ek05an20","null","","","","learningBlock2","","","","This is a wug:","null","","","","",""
"","image-keyboard-response","249","483011","0.0-8.0-1.0","LF","xtld2mlddm","1280","720","de","ek05an20","null","","","","","","","","learning/Slide81.JPG","null","","","","",""
"","html-keyboard-response","250","484025","0.0-8.0-2.0","LF","xtld2mlddm","1280","720","de","ek05an20","null","","","","learningBlock2","","","","<div style=""font-size:60px;""> </div>","null","LF","learning/Slide81.JPG","This is a wug:","",""
"","html-keyboard-response","251","485040","0.0-8.0-0.1","LF","xtld2mlddm","1280","720","de","ek05an20","null","","","","learningBlock2","","","","This is a bim:","null","","","","",""
"","image-keyboard-response","252","485369","0.0-8.0-1.1","LF","xtld2mlddm","1280","720","de","ek05an20","null","","","","","","","","learning/Slide82.JPG","null","","","","",""
"","html-keyboard-response","253","486374","0.0-8.0-2.1","LF","xtld2mlddm","1280","720","de","ek05an20","null","","","","learningBlock2","","","","<div style=""font-size:60px;""> </div>","null","LF","learning/Slide82.JPG","This is a bim:","",""
"","html-keyboard-response","254","487386","0.0-8.0-0.2","LF","xtld2mlddm","1280","720","de","ek05an20","null","","","","learningBlock2","","","","This is a wug:","null","","","","",""
"","image-keyboard-response","255","487717","0.0-8.0-1.2","LF","xtld2mlddm","1280","720","de","ek05an20","null","","","","","","","","learning/Slide83.JPG","null","","","","",""
"","html-keyboard-response","256","488723","0.0-8.0-2.2","LF","xtld2mlddm","1280","720","de","ek05an20","null","","","","learningBlock2","","","","<div style=""font-size:60px;""> </div>","null","LF","learning/Slide83.JPG","This is a wug:","",""
"","html-keyboard-response","257","489735","0.0-8.0-0.3","LF","xtld2mlddm","1280","720","de","ek05an20","null","","","","learningBlock2","","","","This is a dep:","null","","","","",""
"","image-keyboard-response","258","490062","0.0-8.0-1.3","LF","xtld2mlddm","1280","720","de","ek05an20","null","","","","","","","","learning/Slide84.JPG","null","","","","",""
"","html-keyboard-response","259","491070","0.0-8.0-2.3","LF","xtld2mlddm","1280","720","de","ek05an20","null","","","","learningBlock2","","","","<div style=""font-size:60px;""> </div>","null","LF","learning/Slide84.JPG","This is a dep:","",""
"","html-keyboard-response","260","492082","0.0-8.0-0.4","LF","xtld2mlddm","1280","720","de","ek05an20","null","","","","learningBlock2","","","","This is a bim:","null","","","","",""
"","image-keyboard-response","261","492409","0.0-8.0-1.4","LF","xtld2mlddm","1280","720","de","ek05an20","null","","","","","","","","learning/Slide85.JPG","null","","","","",""
"","html-keyboard-response","262","493417","0.0-8.0-2.4","LF","xtld2mlddm","1280","720","de","ek05an20","null","","","","learningBlock2","","","","<div style=""font-size:60px;""> </div>","null","LF","learning/Slide85.JPG","This is a bim:","",""
"","html-keyboard-response","263","494429","0.0-8.0-0.5","LF","xtld2mlddm","1280","720","de","ek05an20","null","","","","learningBlock2","","","","This is a tob:","null","","","","",""
"","image-keyboard-response","264","494766","0.0-8.0-1.5","LF","xtld2mlddm","1280","720","de","ek05an20","null","","","","","","","","learning/Slide86.JPG","null","","","","",""
"","html-keyboard-response","265","495776","0.0-8.0-2.5","LF","xtld2mlddm","1280","720","de","ek05an20","null","","","","learningBlock2","","","","<div style=""font-size:60px;""> </div>","null","LF","learning/Slide86.JPG","This is a tob:","",""
"","html-keyboard-response","266","496789","0.0-8.0-0.6","LF","xtld2mlddm","1280","720","de","ek05an20","null","","","","learningBlock2","","","","This is a wug:","null","","","","",""
"","image-keyboard-response","267","497126","0.0-8.0-1.6","LF","xtld2mlddm","1280","720","de","ek05an20","null","","","","","","","","learning/Slide87.JPG","null","","","","",""
"","html-keyboard-response","268","498138","0.0-8.0-2.6","LF","xtld2mlddm","1280","720","de","ek05an20","null","","","","learningBlock2","","","","<div style=""font-size:60px;""> </div>","null","LF","learning/Slide87.JPG","This is a wug:","",""
"","html-keyboard-response","269","499150","0.0-8.0-0.7","LF","xtld2mlddm","1280","720","de","ek05an20","null","","","","learningBlock2","","","","This is a tob:","null","","","","",""
"","image-keyboard-response","270","499488","0.0-8.0-1.7","LF","xtld2mlddm","1280","720","de","ek05an20","null","","","","","","","","learning/Slide88.JPG","null","","","","",""
"","html-keyboard-response","271","500500","0.0-8.0-2.7","LF","xtld2mlddm","1280","720","de","ek05an20","null","","","","learningBlock2","","","","<div style=""font-size:60px;""> </div>","null","LF","learning/Slide88.JPG","This is a tob:","",""
"","html-keyboard-response","272","501513","0.0-8.0-0.8","LF","xtld2mlddm","1280","720","de","ek05an20","null","","","","learningBlock2","","","","This is a bim:","null","","","","",""
"","image-keyboard-response","273","501843","0.0-8.0-1.8","LF","xtld2mlddm","1280","720","de","ek05an20","null","","","","","","","","learning/Slide89.JPG","null","","","","",""
"","html-keyboard-response","274","502847","0.0-8.0-2.8","LF","xtld2mlddm","1280","720","de","ek05an20","null","","","","learningBlock2","","","","<div style=""font-size:60px;""> </div>","null","LF","learning/Slide89.JPG","This is a bim:","",""
"","html-keyboard-response","275","503859","0.0-8.0-0.9","LF","xtld2mlddm","1280","720","de","ek05an20","null","","","","learningBlock2","","","","This is a dep:","null","","","","",""
"","image-keyboard-response","276","504197","0.0-8.0-1.9","LF","xtld2mlddm","1280","720","de","ek05an20","null","","","","","","","","learning/Slide90.JPG","null","","","","",""
"","html-keyboard-response","277","505210","0.0-8.0-2.9","LF","xtld2mlddm","1280","720","de","ek05an20","null","","","","learningBlock2","","","","<div style=""font-size:60px;""> </div>","null","LF","learning/Slide90.JPG","This is a dep:","",""
"","html-keyboard-response","278","506221","0.0-8.0-0.10","LF","xtld2mlddm","1280","720","de","ek05an20","null","","","","learningBlock2","","","","This is a wug:","null","","","","",""
"","image-keyboard-response","279","506548","0.0-8.0-1.10","LF","xtld2mlddm","1280","720","de","ek05an20","null","","","","","","","","learning/Slide91.JPG","null","","","","",""
"","html-keyboard-response","280","507555","0.0-8.0-2.10","LF","xtld2mlddm","1280","720","de","ek05an20","null","","","","learningBlock2","","","","<div style=""font-size:60px;""> </div>","null","LF","learning/Slide91.JPG","This is a wug:","",""
"","html-keyboard-response","281","508567","0.0-8.0-0.11","LF","xtld2mlddm","1280","720","de","ek05an20","null","","","","learningBlock2","","","","This is a tob:","null","","","","",""
"","image-keyboard-response","282","508905","0.0-8.0-1.11","LF","xtld2mlddm","1280","720","de","ek05an20","null","","","","","","","","learning/Slide92.JPG","null","","","","",""
"","html-keyboard-response","283","509916","0.0-8.0-2.11","LF","xtld2mlddm","1280","720","de","ek05an20","null","","","","learningBlock2","","","","<div style=""font-size:60px;""> </div>","null","LF","learning/Slide92.JPG","This is a tob:","",""
"","html-keyboard-response","284","510928","0.0-8.0-0.12","LF","xtld2mlddm","1280","720","de","ek05an20","null","","","","learningBlock2","","","","This is a bim:","null","","","","",""
"","image-keyboard-response","285","511267","0.0-8.0-1.12","LF","xtld2mlddm","1280","720","de","ek05an20","null","","","","","","","","learning/Slide93.JPG","null","","","","",""
"","html-keyboard-response","286","512280","0.0-8.0-2.12","LF","xtld2mlddm","1280","720","de","ek05an20","null","","","","learningBlock2","","","","<div style=""font-size:60px;""> </div>","null","LF","learning/Slide93.JPG","This is a bim:","",""
"","html-keyboard-response","287","513281","0.0-8.0-0.13","LF","xtld2mlddm","1280","720","de","ek05an20","null","","","","learningBlock2","","","","This is a tob:","null","","","","",""
"","image-keyboard-response","288","513615","0.0-8.0-1.13","LF","xtld2mlddm","1280","720","de","ek05an20","null","","","","","","","","learning/Slide94.JPG","null","","","","",""
"","html-keyboard-response","289","514628","0.0-8.0-2.13","LF","xtld2mlddm","1280","720","de","ek05an20","null","","","","learningBlock2","","","","<div style=""font-size:60px;""> </div>","null","LF","learning/Slide94.JPG","This is a tob:","",""
"","html-keyboard-response","290","515641","0.0-8.0-0.14","LF","xtld2mlddm","1280","720","de","ek05an20","null","","","","learningBlock2","","","","This is a wug:","null","","","","",""
"","image-keyboard-response","291","515979","0.0-8.0-1.14","LF","xtld2mlddm","1280","720","de","ek05an20","null","","","","","","","","learning/Slide95.JPG","null","","","","",""
"","html-keyboard-response","292","516993","0.0-8.0-2.14","LF","xtld2mlddm","1280","720","de","ek05an20","null","","","","learningBlock2","","","","<div style=""font-size:60px;""> </div>","null","LF","learning/Slide95.JPG","This is a wug:","",""
"","html-keyboard-response","293","518007","0.0-8.0-0.15","LF","xtld2mlddm","1280","720","de","ek05an20","null","","","","learningBlock2","","","","This is a tob:","null","","","","",""
"","image-keyboard-response","294","518344","0.0-8.0-1.15","LF","xtld2mlddm","1280","720","de","ek05an20","null","","","","","","","","learning/Slide96.JPG","null","","","","",""
"","html-keyboard-response","295","519351","0.0-8.0-2.15","LF","xtld2mlddm","1280","720","de","ek05an20","null","","","","learningBlock2","","","","<div style=""font-size:60px;""> </div>","null","LF","learning/Slide96.JPG","This is a tob:","",""
"","html-keyboard-response","296","520364","0.0-8.0-0.16","LF","xtld2mlddm","1280","720","de","ek05an20","null","","","","learningBlock2","","","","This is a dep:","null","","","","",""
"","image-keyboard-response","297","520694","0.0-8.0-1.16","LF","xtld2mlddm","1280","720","de","ek05an20","null","","","","","","","","learning/Slide97.JPG","null","","","","",""
"","html-keyboard-response","298","521705","0.0-8.0-2.16","LF","xtld2mlddm","1280","720","de","ek05an20","null","","","","learningBlock2","","","","<div style=""font-size:60px;""> </div>","null","LF","learning/Slide97.JPG","This is a dep:","",""
"","html-keyboard-response","299","522707","0.0-8.0-0.17","LF","xtld2mlddm","1280","720","de","ek05an20","null","","","","learningBlock2","","","","This is a bim:","null","","","","",""
"","image-keyboard-response","300","523041","0.0-8.0-1.17","LF","xtld2mlddm","1280","720","de","ek05an20","null","","","","","","","","learning/Slide98.JPG","null","","","","",""
"","html-keyboard-response","301","524055","0.0-8.0-2.17","LF","xtld2mlddm","1280","720","de","ek05an20","null","","","","learningBlock2","","","","<div style=""font-size:60px;""> </div>","null","LF","learning/Slide98.JPG","This is a bim:","",""
"","html-keyboard-response","302","525067","0.0-8.0-0.18","LF","xtld2mlddm","1280","720","de","ek05an20","null","","","","learningBlock2","","","","This is a dep:","null","","","","",""
"","image-keyboard-response","303","525394","0.0-8.0-1.18","LF","xtld2mlddm","1280","720","de","ek05an20","null","","","","","","","","learning/Slide99.JPG","null","","","","",""
"","html-keyboard-response","304","526404","0.0-8.0-2.18","LF","xtld2mlddm","1280","720","de","ek05an20","null","","","","learningBlock2","","","","<div style=""font-size:60px;""> </div>","null","LF","learning/Slide99.JPG","This is a dep:","",""
"","html-keyboard-response","305","527416","0.0-8.0-0.19","LF","xtld2mlddm","1280","720","de","ek05an20","null","","","","learningBlock2","","","","This is a bim:","null","","","","",""
"","image-keyboard-response","306","527746","0.0-8.0-1.19","LF","xtld2mlddm","1280","720","de","ek05an20","null","","","","","","","","learning/Slide100.JPG","null","","","","",""
"","html-keyboard-response","307","528752","0.0-8.0-2.19","LF","xtld2mlddm","1280","720","de","ek05an20","null","","","","learningBlock2","","","","<div style=""font-size:60px;""> </div>","null","LF","learning/Slide100.JPG","This is a bim:","",""
"","html-keyboard-response","308","529764","0.0-8.0-0.20","LF","xtld2mlddm","1280","720","de","ek05an20","null","","","","learningBlock2","","","","This is a tob:","null","","","","",""
"","image-keyboard-response","309","530094","0.0-8.0-1.20","LF","xtld2mlddm","1280","720","de","ek05an20","null","","","","","","","","learning/Slide101.JPG","null","","","","",""
"","html-keyboard-response","310","531102","0.0-8.0-2.20","LF","xtld2mlddm","1280","720","de","ek05an20","null","","","","learningBlock2","","","","<div style=""font-size:60px;""> </div>","null","LF","learning/Slide101.JPG","This is a tob:","",""
"","html-keyboard-response","311","532116","0.0-8.0-0.21","LF","xtld2mlddm","1280","720","de","ek05an20","null","","","","learningBlock2","","","","This is a bim:","null","","","","",""
"","image-keyboard-response","312","532442","0.0-8.0-1.21","LF","xtld2mlddm","1280","720","de","ek05an20","null","","","","","","","","learning/Slide102.JPG","null","","","","",""
"","html-keyboard-response","313","533449","0.0-8.0-2.21","LF","xtld2mlddm","1280","720","de","ek05an20","null","","","","learningBlock2","","","","<div style=""font-size:60px;""> </div>","null","LF","learning/Slide102.JPG","This is a bim:","",""
"","html-keyboard-response","314","534461","0.0-8.0-0.22","LF","xtld2mlddm","1280","720","de","ek05an20","null","","","","learningBlock2","","","","This is a dep:","null","","","","",""
"","image-keyboard-response","315","534791","0.0-8.0-1.22","LF","xtld2mlddm","1280","720","de","ek05an20","null","","","","","","","","learning/Slide103.JPG","null","","","","",""
"","html-keyboard-response","316","535796","0.0-8.0-2.22","LF","xtld2mlddm","1280","720","de","ek05an20","null","","","","learningBlock2","","","","<div style=""font-size:60px;""> </div>","null","LF","learning/Slide103.JPG","This is a dep:","",""
"","html-keyboard-response","317","536808","0.0-8.0-0.23","LF","xtld2mlddm","1280","720","de","ek05an20","null","","","","learningBlock2","","","","This is a tob:","null","","","","",""
"","image-keyboard-response","318","537137","0.0-8.0-1.23","LF","xtld2mlddm","1280","720","de","ek05an20","null","","","","","","","","learning/Slide104.JPG","null","","","","",""
"","html-keyboard-response","319","538141","0.0-8.0-2.23","LF","xtld2mlddm","1280","720","de","ek05an20","null","","","","learningBlock2","","","","<div style=""font-size:60px;""> </div>","null","LF","learning/Slide104.JPG","This is a tob:","",""
"","html-keyboard-response","320","539142","0.0-8.0-0.24","LF","xtld2mlddm","1280","720","de","ek05an20","null","","","","learningBlock2","","","","This is a dep:","null","","","","",""
"","image-keyboard-response","321","539469","0.0-8.0-1.24","LF","xtld2mlddm","1280","720","de","ek05an20","null","","","","","","","","learning/Slide105.JPG","null","","","","",""
"","html-keyboard-response","322","540474","0.0-8.0-2.24","LF","xtld2mlddm","1280","720","de","ek05an20","null","","","","learningBlock2","","","","<div style=""font-size:60px;""> </div>","null","LF","learning/Slide105.JPG","This is a dep:","",""
"","html-keyboard-response","323","541475","0.0-8.0-0.25","LF","xtld2mlddm","1280","720","de","ek05an20","null","","","","learningBlock2","","","","This is a wug:","null","","","","",""
"","image-keyboard-response","324","541816","0.0-8.0-1.25","LF","xtld2mlddm","1280","720","de","ek05an20","null","","","","","","","","learning/Slide106.JPG","null","","","","",""
"","html-keyboard-response","325","542822","0.0-8.0-2.25","LF","xtld2mlddm","1280","720","de","ek05an20","null","","","","learningBlock2","","","","<div style=""font-size:60px;""> </div>","null","LF","learning/Slide106.JPG","This is a wug:","",""
"","html-keyboard-response","326","543833","0.0-8.0-0.26","LF","xtld2mlddm","1280","720","de","ek05an20","null","","","","learningBlock2","","","","This is a bim:","null","","","","",""
"","image-keyboard-response","327","544163","0.0-8.0-1.26","LF","xtld2mlddm","1280","720","de","ek05an20","null","","","","","","","","learning/Slide107.JPG","null","","","","",""
"","html-keyboard-response","328","545169","0.0-8.0-2.26","LF","xtld2mlddm","1280","720","de","ek05an20","null","","","","learningBlock2","","","","<div style=""font-size:60px;""> </div>","null","LF","learning/Slide107.JPG","This is a bim:","",""
"","html-keyboard-response","329","546181","0.0-8.0-0.27","LF","xtld2mlddm","1280","720","de","ek05an20","null","","","","learningBlock2","","","","This is a dep:","null","","","","",""
"","image-keyboard-response","330","546508","0.0-8.0-1.27","LF","xtld2mlddm","1280","720","de","ek05an20","null","","","","","","","","learning/Slide108.JPG","null","","","","",""
"","html-keyboard-response","331","547517","0.0-8.0-2.27","LF","xtld2mlddm","1280","720","de","ek05an20","null","","","","learningBlock2","","","","<div style=""font-size:60px;""> </div>","null","LF","learning/Slide108.JPG","This is a dep:","",""
"","html-keyboard-response","332","548528","0.0-8.0-0.28","LF","xtld2mlddm","1280","720","de","ek05an20","null","","","","learningBlock2","","","","This is a wug:","null","","","","",""
"","image-keyboard-response","333","548857","0.0-8.0-1.28","LF","xtld2mlddm","1280","720","de","ek05an20","null","","","","","","","","learning/Slide109.JPG","null","","","","",""
"","html-keyboard-response","334","549863","0.0-8.0-2.28","LF","xtld2mlddm","1280","720","de","ek05an20","null","","","","learningBlock2","","","","<div style=""font-size:60px;""> </div>","null","LF","learning/Slide109.JPG","This is a wug:","",""
"","html-keyboard-response","335","550877","0.0-8.0-0.29","LF","xtld2mlddm","1280","720","de","ek05an20","null","","","","learningBlock2","","","","This is a bim:","null","","","","",""
"","image-keyboard-response","336","551204","0.0-8.0-1.29","LF","xtld2mlddm","1280","720","de","ek05an20","null","","","","","","","","learning/Slide110.JPG","null","","","","",""
"","html-keyboard-response","337","552215","0.0-8.0-2.29","LF","xtld2mlddm","1280","720","de","ek05an20","null","","","","learningBlock2","","","","<div style=""font-size:60px;""> </div>","null","LF","learning/Slide110.JPG","This is a bim:","",""
"","html-keyboard-response","338","553229","0.0-8.0-0.30","LF","xtld2mlddm","1280","720","de","ek05an20","null","","","","learningBlock2","","","","This is a tob:","null","","","","",""
"","image-keyboard-response","339","553566","0.0-8.0-1.30","LF","xtld2mlddm","1280","720","de","ek05an20","null","","","","","","","","learning/Slide111.JPG","null","","","","",""
"","html-keyboard-response","340","554579","0.0-8.0-2.30","LF","xtld2mlddm","1280","720","de","ek05an20","null","","","","learningBlock2","","","","<div style=""font-size:60px;""> </div>","null","LF","learning/Slide111.JPG","This is a tob:","",""
"","html-keyboard-response","341","555592","0.0-8.0-0.31","LF","xtld2mlddm","1280","720","de","ek05an20","null","","","","learningBlock2","","","","This is a wug:","null","","","","",""
"","image-keyboard-response","342","555922","0.0-8.0-1.31","LF","xtld2mlddm","1280","720","de","ek05an20","null","","","","","","","","learning/Slide112.JPG","null","","","","",""
"","html-keyboard-response","343","556930","0.0-8.0-2.31","LF","xtld2mlddm","1280","720","de","ek05an20","null","","","","learningBlock2","","","","<div style=""font-size:60px;""> </div>","null","LF","learning/Slide112.JPG","This is a wug:","",""
"","html-keyboard-response","344","557943","0.0-8.0-0.32","LF","xtld2mlddm","1280","720","de","ek05an20","null","","","","learningBlock2","","","","This is a tob:","null","","","","",""
"","image-keyboard-response","345","558283","0.0-8.0-1.32","LF","xtld2mlddm","1280","720","de","ek05an20","null","","","","","","","","learning/Slide113.JPG","null","","","","",""
"","html-keyboard-response","346","559284","0.0-8.0-2.32","LF","xtld2mlddm","1280","720","de","ek05an20","null","","","","learningBlock2","","","","<div style=""font-size:60px;""> </div>","null","LF","learning/Slide113.JPG","This is a tob:","",""
"","html-keyboard-response","347","560297","0.0-8.0-0.33","LF","xtld2mlddm","1280","720","de","ek05an20","null","","","","learningBlock2","","","","This is a wug:","null","","","","",""
"","image-keyboard-response","348","560626","0.0-8.0-1.33","LF","xtld2mlddm","1280","720","de","ek05an20","null","","","","","","","","learning/Slide114.JPG","null","","","","",""
"","html-keyboard-response","349","561630","0.0-8.0-2.33","LF","xtld2mlddm","1280","720","de","ek05an20","null","","","","learningBlock2","","","","<div style=""font-size:60px;""> </div>","null","LF","learning/Slide114.JPG","This is a wug:","",""
"","html-keyboard-response","350","562642","0.0-8.0-0.34","LF","xtld2mlddm","1280","720","de","ek05an20","null","","","","learningBlock2","","","","This is a bim:","null","","","","",""
"","image-keyboard-response","351","562971","0.0-8.0-1.34","LF","xtld2mlddm","1280","720","de","ek05an20","null","","","","","","","","learning/Slide115.JPG","null","","","","",""
"","html-keyboard-response","352","563976","0.0-8.0-2.34","LF","xtld2mlddm","1280","720","de","ek05an20","null","","","","learningBlock2","","","","<div style=""font-size:60px;""> </div>","null","LF","learning/Slide115.JPG","This is a bim:","",""
"","html-keyboard-response","353","564991","0.0-8.0-0.35","LF","xtld2mlddm","1280","720","de","ek05an20","null","","","","learningBlock2","","","","This is a dep:","null","","","","",""
"","image-keyboard-response","354","565328","0.0-8.0-1.35","LF","xtld2mlddm","1280","720","de","ek05an20","null","","","","","","","","learning/Slide116.JPG","null","","","","",""
"","html-keyboard-response","355","566340","0.0-8.0-2.35","LF","xtld2mlddm","1280","720","de","ek05an20","null","","","","learningBlock2","","","","<div style=""font-size:60px;""> </div>","null","LF","learning/Slide116.JPG","This is a dep:","",""
"","html-keyboard-response","356","567352","0.0-8.0-0.36","LF","xtld2mlddm","1280","720","de","ek05an20","null","","","","learningBlock2","","","","This is a tob:","null","","","","",""
"","image-keyboard-response","357","567689","0.0-8.0-1.36","LF","xtld2mlddm","1280","720","de","ek05an20","null","","","","","","","","learning/Slide117.JPG","null","","","","",""
"","html-keyboard-response","358","568701","0.0-8.0-2.36","LF","xtld2mlddm","1280","720","de","ek05an20","null","","","","learningBlock2","","","","<div style=""font-size:60px;""> </div>","null","LF","learning/Slide117.JPG","This is a tob:","",""
"","html-keyboard-response","359","569713","0.0-8.0-0.37","LF","xtld2mlddm","1280","720","de","ek05an20","null","","","","learningBlock2","","","","This is a dep:","null","","","","",""
"","image-keyboard-response","360","570040","0.0-8.0-1.37","LF","xtld2mlddm","1280","720","de","ek05an20","null","","","","","","","","learning/Slide118.JPG","null","","","","",""
"","html-keyboard-response","361","571051","0.0-8.0-2.37","LF","xtld2mlddm","1280","720","de","ek05an20","null","","","","learningBlock2","","","","<div style=""font-size:60px;""> </div>","null","LF","learning/Slide118.JPG","This is a dep:","",""
"","html-keyboard-response","362","572063","0.0-8.0-0.38","LF","xtld2mlddm","1280","720","de","ek05an20","null","","","","learningBlock2","","","","This is a wug:","null","","","","",""
"","image-keyboard-response","363","572402","0.0-8.0-1.38","LF","xtld2mlddm","1280","720","de","ek05an20","null","","","","","","","","learning/Slide119.JPG","null","","","","",""
"","html-keyboard-response","364","573413","0.0-8.0-2.38","LF","xtld2mlddm","1280","720","de","ek05an20","null","","","","learningBlock2","","","","<div style=""font-size:60px;""> </div>","null","LF","learning/Slide119.JPG","This is a wug:","",""
"","html-keyboard-response","365","574427","0.0-8.0-0.39","LF","xtld2mlddm","1280","720","de","ek05an20","null","","","","learningBlock2","","","","This is a dep:","null","","","","",""
"","image-keyboard-response","366","574767","0.0-8.0-1.39","LF","xtld2mlddm","1280","720","de","ek05an20","null","","","","","","","","learning/Slide120.JPG","null","","","","",""
"","html-keyboard-response","367","575780","0.0-8.0-2.39","LF","xtld2mlddm","1280","720","de","ek05an20","null","","","","learningBlock2","","","","<div style=""font-size:60px;""> </div>","null","LF","learning/Slide120.JPG","This is a dep:","",""
"","html-keyboard-response","368","576792","0.0-8.0-0.40","LF","xtld2mlddm","1280","720","de","ek05an20","null","","","","learningBlock2","","","","This is a bim:","null","","","","",""
"","image-keyboard-response","369","577131","0.0-8.0-1.40","LF","xtld2mlddm","1280","720","de","ek05an20","null","","","","","","","","learning/Slide121.JPG","null","","","","",""
"","html-keyboard-response","370","578142","0.0-8.0-2.40","LF","xtld2mlddm","1280","720","de","ek05an20","null","","","","learningBlock2","","","","<div style=""font-size:60px;""> </div>","null","LF","learning/Slide121.JPG","This is a bim:","",""
"","html-keyboard-response","371","579155","0.0-8.0-0.41","LF","xtld2mlddm","1280","720","de","ek05an20","null","","","","learningBlock2","","","","This is a wug:","null","","","","",""
"","image-keyboard-response","372","579492","0.0-8.0-1.41","LF","xtld2mlddm","1280","720","de","ek05an20","null","","","","","","","","learning/Slide122.JPG","null","","","","",""
"","html-keyboard-response","373","580506","0.0-8.0-2.41","LF","xtld2mlddm","1280","720","de","ek05an20","null","","","","learningBlock2","","","","<div style=""font-size:60px;""> </div>","null","LF","learning/Slide122.JPG","This is a wug:","",""
"","html-keyboard-response","374","581519","0.0-8.0-0.42","LF","xtld2mlddm","1280","720","de","ek05an20","null","","","","learningBlock2","","","","This is a bim:","null","","","","",""
"","image-keyboard-response","375","581857","0.0-8.0-1.42","LF","xtld2mlddm","1280","720","de","ek05an20","null","","","","","","","","learning/Slide123.JPG","null","","","","",""
"","html-keyboard-response","376","582871","0.0-8.0-2.42","LF","xtld2mlddm","1280","720","de","ek05an20","null","","","","learningBlock2","","","","<div style=""font-size:60px;""> </div>","null","LF","learning/Slide123.JPG","This is a bim:","",""
"","html-keyboard-response","377","583883","0.0-8.0-0.43","LF","xtld2mlddm","1280","720","de","ek05an20","null","","","","learningBlock2","","","","This is a tob:","null","","","","",""
"","image-keyboard-response","378","584221","0.0-8.0-1.43","LF","xtld2mlddm","1280","720","de","ek05an20","null","","","","","","","","learning/Slide124.JPG","null","","","","",""
"","html-keyboard-response","379","585232","0.0-8.0-2.43","LF","xtld2mlddm","1280","720","de","ek05an20","null","","","","learningBlock2","","","","<div style=""font-size:60px;""> </div>","null","LF","learning/Slide124.JPG","This is a tob:","",""
"","html-keyboard-response","380","586244","0.0-8.0-0.44","LF","xtld2mlddm","1280","720","de","ek05an20","null","","","","learningBlock2","","","","This is a bim:","null","","","","",""
"","image-keyboard-response","381","586574","0.0-8.0-1.44","LF","xtld2mlddm","1280","720","de","ek05an20","null","","","","","","","","learning/Slide125.JPG","null","","","","",""
"","html-keyboard-response","382","587580","0.0-8.0-2.44","LF","xtld2mlddm","1280","720","de","ek05an20","null","","","","learningBlock2","","","","<div style=""font-size:60px;""> </div>","null","LF","learning/Slide125.JPG","This is a bim:","",""
"","html-keyboard-response","383","588593","0.0-8.0-0.45","LF","xtld2mlddm","1280","720","de","ek05an20","null","","","","learningBlock2","","","","This is a tob:","null","","","","",""
"","image-keyboard-response","384","588930","0.0-8.0-1.45","LF","xtld2mlddm","1280","720","de","ek05an20","null","","","","","","","","learning/Slide126.JPG","null","","","","",""
"","html-keyboard-response","385","589941","0.0-8.0-2.45","LF","xtld2mlddm","1280","720","de","ek05an20","null","","","","learningBlock2","","","","<div style=""font-size:60px;""> </div>","null","LF","learning/Slide126.JPG","This is a tob:","",""
"","html-keyboard-response","386","590953","0.0-8.0-0.46","LF","xtld2mlddm","1280","720","de","ek05an20","null","","","","learningBlock2","","","","This is a dep:","null","","","","",""
"","image-keyboard-response","387","591290","0.0-8.0-1.46","LF","xtld2mlddm","1280","720","de","ek05an20","null","","","","","","","","learning/Slide127.JPG","null","","","","",""
"","html-keyboard-response","388","592304","0.0-8.0-2.46","LF","xtld2mlddm","1280","720","de","ek05an20","null","","","","learningBlock2","","","","<div style=""font-size:60px;""> </div>","null","LF","learning/Slide127.JPG","This is a dep:","",""
"","html-keyboard-response","389","593305","0.0-8.0-0.47","LF","xtld2mlddm","1280","720","de","ek05an20","null","","","","learningBlock2","","","","This is a wug:","null","","","","",""
"","image-keyboard-response","390","593642","0.0-8.0-1.47","LF","xtld2mlddm","1280","720","de","ek05an20","null","","","","","","","","learning/Slide128.JPG","null","","","","",""
"","html-keyboard-response","391","594656","0.0-8.0-2.47","LF","xtld2mlddm","1280","720","de","ek05an20","null","","","","learningBlock2","","","","<div style=""font-size:60px;""> </div>","null","LF","learning/Slide128.JPG","This is a wug:","",""
"","html-keyboard-response","392","595668","0.0-8.0-0.48","LF","xtld2mlddm","1280","720","de","ek05an20","null","","","","learningBlock2","","","","This is a tob:","null","","","","",""
"","image-keyboard-response","393","596007","0.0-8.0-1.48","LF","xtld2mlddm","1280","720","de","ek05an20","null","","","","","","","","learning/Slide129.JPG","null","","","","",""
"","html-keyboard-response","394","597019","0.0-8.0-2.48","LF","xtld2mlddm","1280","720","de","ek05an20","null","","","","learningBlock2","","","","<div style=""font-size:60px;""> </div>","null","LF","learning/Slide129.JPG","This is a tob:","",""
"","html-keyboard-response","395","598031","0.0-8.0-0.49","LF","xtld2mlddm","1280","720","de","ek05an20","null","","","","learningBlock2","","","","This is a wug:","null","","","","",""
"","image-keyboard-response","396","598371","0.0-8.0-1.49","LF","xtld2mlddm","1280","720","de","ek05an20","null","","","","","","","","learning/Slide130.JPG","null","","","","",""
"","html-keyboard-response","397","599383","0.0-8.0-2.49","LF","xtld2mlddm","1280","720","de","ek05an20","null","","","","learningBlock2","","","","<div style=""font-size:60px;""> </div>","null","LF","learning/Slide130.JPG","This is a wug:","",""
"","html-keyboard-response","398","600395","0.0-8.0-0.50","LF","xtld2mlddm","1280","720","de","ek05an20","null","","","","learningBlock2","","","","This is a bim:","null","","","","",""
"","image-keyboard-response","399","600732","0.0-8.0-1.50","LF","xtld2mlddm","1280","720","de","ek05an20","null","","","","","","","","learning/Slide131.JPG","null","","","","",""
"","html-keyboard-response","400","601745","0.0-8.0-2.50","LF","xtld2mlddm","1280","720","de","ek05an20","null","","","","learningBlock2","","","","<div style=""font-size:60px;""> </div>","null","LF","learning/Slide131.JPG","This is a bim:","",""
"","html-keyboard-response","401","602756","0.0-8.0-0.51","LF","xtld2mlddm","1280","720","de","ek05an20","null","","","","learningBlock2","","","","This is a dep:","null","","","","",""
"","image-keyboard-response","402","603082","0.0-8.0-1.51","LF","xtld2mlddm","1280","720","de","ek05an20","null","","","","","","","","learning/Slide132.JPG","null","","","","",""
"","html-keyboard-response","403","604090","0.0-8.0-2.51","LF","xtld2mlddm","1280","720","de","ek05an20","null","","","","learningBlock2","","","","<div style=""font-size:60px;""> </div>","null","LF","learning/Slide132.JPG","This is a dep:","",""
"","html-keyboard-response","404","605102","0.0-8.0-0.52","LF","xtld2mlddm","1280","720","de","ek05an20","null","","","","learningBlock2","","","","This is a tob:","null","","","","",""
"","image-keyboard-response","405","605440","0.0-8.0-1.52","LF","xtld2mlddm","1280","720","de","ek05an20","null","","","","","","","","learning/Slide133.JPG","null","","","","",""
"","html-keyboard-response","406","606452","0.0-8.0-2.52","LF","xtld2mlddm","1280","720","de","ek05an20","null","","","","learningBlock2","","","","<div style=""font-size:60px;""> </div>","null","LF","learning/Slide133.JPG","This is a tob:","",""
"","html-keyboard-response","407","607466","0.0-8.0-0.53","LF","xtld2mlddm","1280","720","de","ek05an20","null","","","","learningBlock2","","","","This is a dep:","null","","","","",""
"","image-keyboard-response","408","607802","0.0-8.0-1.53","LF","xtld2mlddm","1280","720","de","ek05an20","null","","","","","","","","learning/Slide134.JPG","null","","","","",""
"","html-keyboard-response","409","608817","0.0-8.0-2.53","LF","xtld2mlddm","1280","720","de","ek05an20","null","","","","learningBlock2","","","","<div style=""font-size:60px;""> </div>","null","LF","learning/Slide134.JPG","This is a dep:","",""
"","html-keyboard-response","410","609828","0.0-8.0-0.54","LF","xtld2mlddm","1280","720","de","ek05an20","null","","","","learningBlock2","","","","This is a tob:","null","","","","",""
"","image-keyboard-response","411","610156","0.0-8.0-1.54","LF","xtld2mlddm","1280","720","de","ek05an20","null","","","","","","","","learning/Slide135.JPG","null","","","","",""
"","html-keyboard-response","412","611163","0.0-8.0-2.54","LF","xtld2mlddm","1280","720","de","ek05an20","null","","","","learningBlock2","","","","<div style=""font-size:60px;""> </div>","null","LF","learning/Slide135.JPG","This is a tob:","",""
"","html-keyboard-response","413","612175","0.0-8.0-0.55","LF","xtld2mlddm","1280","720","de","ek05an20","null","","","","learningBlock2","","","","This is a wug:","null","","","","",""
"","image-keyboard-response","414","612505","0.0-8.0-1.55","LF","xtld2mlddm","1280","720","de","ek05an20","null","","","","","","","","learning/Slide136.JPG","null","","","","",""
"","html-keyboard-response","415","613511","0.0-8.0-2.55","LF","xtld2mlddm","1280","720","de","ek05an20","null","","","","learningBlock2","","","","<div style=""font-size:60px;""> </div>","null","LF","learning/Slide136.JPG","This is a wug:","",""
"","html-keyboard-response","416","614524","0.0-8.0-0.56","LF","xtld2mlddm","1280","720","de","ek05an20","null","","","","learningBlock2","","","","This is a tob:","null","","","","",""
"","image-keyboard-response","417","614861","0.0-8.0-1.56","LF","xtld2mlddm","1280","720","de","ek05an20","null","","","","","","","","learning/Slide137.JPG","null","","","","",""
"","html-keyboard-response","418","615872","0.0-8.0-2.56","LF","xtld2mlddm","1280","720","de","ek05an20","null","","","","learningBlock2","","","","<div style=""font-size:60px;""> </div>","null","LF","learning/Slide137.JPG","This is a tob:","",""
"","html-keyboard-response","419","616884","0.0-8.0-0.57","LF","xtld2mlddm","1280","720","de","ek05an20","null","","","","learningBlock2","","","","This is a bim:","null","","","","",""
"","image-keyboard-response","420","617222","0.0-8.0-1.57","LF","xtld2mlddm","1280","720","de","ek05an20","null","","","","","","","","learning/Slide138.JPG","null","","","","",""
"","html-keyboard-response","421","618235","0.0-8.0-2.57","LF","xtld2mlddm","1280","720","de","ek05an20","null","","","","learningBlock2","","","","<div style=""font-size:60px;""> </div>","null","LF","learning/Slide138.JPG","This is a bim:","",""
"","html-keyboard-response","422","619247","0.0-8.0-0.58","LF","xtld2mlddm","1280","720","de","ek05an20","null","","","","learningBlock2","","","","This is a wug:","null","","","","",""
"","image-keyboard-response","423","619587","0.0-8.0-1.58","LF","xtld2mlddm","1280","720","de","ek05an20","null","","","","","","","","learning/Slide139.JPG","null","","","","",""
"","html-keyboard-response","424","620598","0.0-8.0-2.58","LF","xtld2mlddm","1280","720","de","ek05an20","null","","","","learningBlock2","","","","<div style=""font-size:60px;""> </div>","null","LF","learning/Slide139.JPG","This is a wug:","",""
"","html-keyboard-response","425","621610","0.0-8.0-0.59","LF","xtld2mlddm","1280","720","de","ek05an20","null","","","","learningBlock2","","","","This is a dep:","null","","","","",""
"","image-keyboard-response","426","621938","0.0-8.0-1.59","LF","xtld2mlddm","1280","720","de","ek05an20","null","","","","","","","","learning/Slide140.JPG","null","","","","",""
"","html-keyboard-response","427","622942","0.0-8.0-2.59","LF","xtld2mlddm","1280","720","de","ek05an20","null","","","","learningBlock2","","","","<div style=""font-size:60px;""> </div>","null","LF","learning/Slide140.JPG","This is a dep:","",""
"","html-keyboard-response","428","623956","0.0-8.0-0.60","LF","xtld2mlddm","1280","720","de","ek05an20","null","","","","learningBlock2","","","","This is a tob:","null","","","","",""
"","image-keyboard-response","429","624295","0.0-8.0-1.60","LF","xtld2mlddm","1280","720","de","ek05an20","null","","","","","","","","learning/Slide141.JPG","null","","","","",""
"","html-keyboard-response","430","625307","0.0-8.0-2.60","LF","xtld2mlddm","1280","720","de","ek05an20","null","","","","learningBlock2","","","","<div style=""font-size:60px;""> </div>","null","LF","learning/Slide141.JPG","This is a tob:","",""
"","html-keyboard-response","431","626320","0.0-8.0-0.61","LF","xtld2mlddm","1280","720","de","ek05an20","null","","","","learningBlock2","","","","This is a wug:","null","","","","",""
"","image-keyboard-response","432","626648","0.0-8.0-1.61","LF","xtld2mlddm","1280","720","de","ek05an20","null","","","","","","","","learning/Slide142.JPG","null","","","","",""
"","html-keyboard-response","433","627653","0.0-8.0-2.61","LF","xtld2mlddm","1280","720","de","ek05an20","null","","","","learningBlock2","","","","<div style=""font-size:60px;""> </div>","null","LF","learning/Slide142.JPG","This is a wug:","",""
"","html-keyboard-response","434","628665","0.0-8.0-0.62","LF","xtld2mlddm","1280","720","de","ek05an20","null","","","","learningBlock2","","","","This is a bim:","null","","","","",""
"","image-keyboard-response","435","628994","0.0-8.0-1.62","LF","xtld2mlddm","1280","720","de","ek05an20","null","","","","","","","","learning/Slide143.JPG","null","","","","",""
"","html-keyboard-response","436","630000","0.0-8.0-2.62","LF","xtld2mlddm","1280","720","de","ek05an20","null","","","","learningBlock2","","","","<div style=""font-size:60px;""> </div>","null","LF","learning/Slide143.JPG","This is a bim:","",""
"","html-keyboard-response","437","631012","0.0-8.0-0.63","LF","xtld2mlddm","1280","720","de","ek05an20","null","","","","learningBlock2","","","","This is a dep:","null","","","","",""
"","image-keyboard-response","438","631342","0.0-8.0-1.63","LF","xtld2mlddm","1280","720","de","ek05an20","null","","","","","","","","learning/Slide144.JPG","null","","","","",""
"","html-keyboard-response","439","632346","0.0-8.0-2.63","LF","xtld2mlddm","1280","720","de","ek05an20","null","","","","learningBlock2","","","","<div style=""font-size:60px;""> </div>","null","LF","learning/Slide144.JPG","This is a dep:","",""
"","html-keyboard-response","440","633358","0.0-8.0-0.64","LF","xtld2mlddm","1280","720","de","ek05an20","null","","","","learningBlock2","","","","This is a bim:","null","","","","",""
"","image-keyboard-response","441","633684","0.0-8.0-1.64","LF","xtld2mlddm","1280","720","de","ek05an20","null","","","","","","","","learning/Slide145.JPG","null","","","","",""
"","html-keyboard-response","442","634692","0.0-8.0-2.64","LF","xtld2mlddm","1280","720","de","ek05an20","null","","","","learningBlock2","","","","<div style=""font-size:60px;""> </div>","null","LF","learning/Slide145.JPG","This is a bim:","",""
"","html-keyboard-response","443","635694","0.0-8.0-0.65","LF","xtld2mlddm","1280","720","de","ek05an20","null","","","","learningBlock2","","","","This is a tob:","null","","","","",""
"","image-keyboard-response","444","636033","0.0-8.0-1.65","LF","xtld2mlddm","1280","720","de","ek05an20","null","","","","","","","","learning/Slide146.JPG","null","","","","",""
"","html-keyboard-response","445","637038","0.0-8.0-2.65","LF","xtld2mlddm","1280","720","de","ek05an20","null","","","","learningBlock2","","","","<div style=""font-size:60px;""> </div>","null","LF","learning/Slide146.JPG","This is a tob:","",""
"","html-keyboard-response","446","638049","0.0-8.0-0.66","LF","xtld2mlddm","1280","720","de","ek05an20","null","","","","learningBlock2","","","","This is a wug:","null","","","","",""
"","image-keyboard-response","447","638387","0.0-8.0-1.66","LF","xtld2mlddm","1280","720","de","ek05an20","null","","","","","","","","learning/Slide147.JPG","null","","","","",""
"","html-keyboard-response","448","639397","0.0-8.0-2.66","LF","xtld2mlddm","1280","720","de","ek05an20","null","","","","learningBlock2","","","","<div style=""font-size:60px;""> </div>","null","LF","learning/Slide147.JPG","This is a wug:","",""
"","html-keyboard-response","449","640409","0.0-8.0-0.67","LF","xtld2mlddm","1280","720","de","ek05an20","null","","","","learningBlock2","","","","This is a bim:","null","","","","",""
"","image-keyboard-response","450","640738","0.0-8.0-1.67","LF","xtld2mlddm","1280","720","de","ek05an20","null","","","","","","","","learning/Slide148.JPG","null","","","","",""
"","html-keyboard-response","451","641744","0.0-8.0-2.67","LF","xtld2mlddm","1280","720","de","ek05an20","null","","","","learningBlock2","","","","<div style=""font-size:60px;""> </div>","null","LF","learning/Slide148.JPG","This is a bim:","",""
"","html-keyboard-response","452","642757","0.0-8.0-0.68","LF","xtld2mlddm","1280","720","de","ek05an20","null","","","","learningBlock2","","","","This is a dep:","null","","","","",""
"","image-keyboard-response","453","643087","0.0-8.0-1.68","LF","xtld2mlddm","1280","720","de","ek05an20","null","","","","","","","","learning/Slide149.JPG","null","","","","",""
"","html-keyboard-response","454","644093","0.0-8.0-2.68","LF","xtld2mlddm","1280","720","de","ek05an20","null","","","","learningBlock2","","","","<div style=""font-size:60px;""> </div>","null","LF","learning/Slide149.JPG","This is a dep:","",""
"","html-keyboard-response","455","645095","0.0-8.0-0.69","LF","xtld2mlddm","1280","720","de","ek05an20","null","","","","learningBlock2","","","","This is a wug:","null","","","","",""
"","image-keyboard-response","456","645422","0.0-8.0-1.69","LF","xtld2mlddm","1280","720","de","ek05an20","null","","","","","","","","learning/Slide150.JPG","null","","","","",""
"","html-keyboard-response","457","646428","0.0-8.0-2.69","LF","xtld2mlddm","1280","720","de","ek05an20","null","","","","learningBlock2","","","","<div style=""font-size:60px;""> </div>","null","LF","learning/Slide150.JPG","This is a wug:","",""
"","html-keyboard-response","458","647441","0.0-8.0-0.70","LF","xtld2mlddm","1280","720","de","ek05an20","null","","","","learningBlock2","","","","This is a dep:","null","","","","",""
"","image-keyboard-response","459","647780","0.0-8.0-1.70","LF","xtld2mlddm","1280","720","de","ek05an20","null","","","","","","","","learning/Slide151.JPG","null","","","","",""
"","html-keyboard-response","460","648792","0.0-8.0-2.70","LF","xtld2mlddm","1280","720","de","ek05an20","null","","","","learningBlock2","","","","<div style=""font-size:60px;""> </div>","null","LF","learning/Slide151.JPG","This is a dep:","",""
"","html-keyboard-response","461","649804","0.0-8.0-0.71","LF","xtld2mlddm","1280","720","de","ek05an20","null","","","","learningBlock2","","","","This is a wug:","null","","","","",""
"","image-keyboard-response","462","650132","0.0-8.0-1.71","LF","xtld2mlddm","1280","720","de","ek05an20","null","","","","","","","","learning/Slide152.JPG","null","","","","",""
"","html-keyboard-response","463","651140","0.0-8.0-2.71","LF","xtld2mlddm","1280","720","de","ek05an20","null","","","","learningBlock2","","","","<div style=""font-size:60px;""> </div>","null","LF","learning/Slide152.JPG","This is a wug:","",""
"","html-keyboard-response","464","652152","0.0-8.0-0.72","LF","xtld2mlddm","1280","720","de","ek05an20","null","","","","learningBlock2","","","","This is a bim:","null","","","","",""
"","image-keyboard-response","465","652481","0.0-8.0-1.72","LF","xtld2mlddm","1280","720","de","ek05an20","null","","","","","","","","learning/Slide153.JPG","null","","","","",""
"","html-keyboard-response","466","653487","0.0-8.0-2.72","LF","xtld2mlddm","1280","720","de","ek05an20","null","","","","learningBlock2","","","","<div style=""font-size:60px;""> </div>","null","LF","learning/Slide153.JPG","This is a bim:","",""
"","html-keyboard-response","467","654500","0.0-8.0-0.73","LF","xtld2mlddm","1280","720","de","ek05an20","null","","","","learningBlock2","","","","This is a tob:","null","","","","",""
"","image-keyboard-response","468","654837","0.0-8.0-1.73","LF","xtld2mlddm","1280","720","de","ek05an20","null","","","","","","","","learning/Slide154.JPG","null","","","","",""
"","html-keyboard-response","469","655848","0.0-8.0-2.73","LF","xtld2mlddm","1280","720","de","ek05an20","null","","","","learningBlock2","","","","<div style=""font-size:60px;""> </div>","null","LF","learning/Slide154.JPG","This is a tob:","",""
"","html-keyboard-response","470","656861","0.0-8.0-0.74","LF","xtld2mlddm","1280","720","de","ek05an20","null","","","","learningBlock2","","","","This is a dep:","null","","","","",""
"","image-keyboard-response","471","657199","0.0-8.0-1.74","LF","xtld2mlddm","1280","720","de","ek05an20","null","","","","","","","","learning/Slide155.JPG","null","","","","",""
"","html-keyboard-response","472","658211","0.0-8.0-2.74","LF","xtld2mlddm","1280","720","de","ek05an20","null","","","","learningBlock2","","","","<div style=""font-size:60px;""> </div>","null","LF","learning/Slide155.JPG","This is a dep:","",""
"","html-keyboard-response","473","659223","0.0-8.0-0.75","LF","xtld2mlddm","1280","720","de","ek05an20","null","","","","learningBlock2","","","","This is a bim:","null","","","","",""
"","image-keyboard-response","474","659561","0.0-8.0-1.75","LF","xtld2mlddm","1280","720","de","ek05an20","null","","","","","","","","learning/Slide156.JPG","null","","","","",""
"","html-keyboard-response","475","660572","0.0-8.0-2.75","LF","xtld2mlddm","1280","720","de","ek05an20","null","","","","learningBlock2","","","","<div style=""font-size:60px;""> </div>","null","LF","learning/Slide156.JPG","This is a bim:","",""
"","html-keyboard-response","476","661585","0.0-8.0-0.76","LF","xtld2mlddm","1280","720","de","ek05an20","null","","","","learningBlock2","","","","This is a dep:","null","","","","",""
"","image-keyboard-response","477","661922","0.0-8.0-1.76","LF","xtld2mlddm","1280","720","de","ek05an20","null","","","","","","","","learning/Slide157.JPG","null","","","","",""
"","html-keyboard-response","478","662933","0.0-8.0-2.76","LF","xtld2mlddm","1280","720","de","ek05an20","null","","","","learningBlock2","","","","<div style=""font-size:60px;""> </div>","null","LF","learning/Slide157.JPG","This is a dep:","",""
"","html-keyboard-response","479","663946","0.0-8.0-0.77","LF","xtld2mlddm","1280","720","de","ek05an20","null","","","","learningBlock2","","","","This is a tob:","null","","","","",""
"","image-keyboard-response","480","664277","0.0-8.0-1.77","LF","xtld2mlddm","1280","720","de","ek05an20","null","","","","","","","","learning/Slide158.JPG","null","","","","",""
"","html-keyboard-response","481","665282","0.0-8.0-2.77","LF","xtld2mlddm","1280","720","de","ek05an20","null","","","","learningBlock2","","","","<div style=""font-size:60px;""> </div>","null","LF","learning/Slide158.JPG","This is a tob:","",""
"","html-keyboard-response","482","666295","0.0-8.0-0.78","LF","xtld2mlddm","1280","720","de","ek05an20","null","","","","learningBlock2","","","","This is a dep:","null","","","","",""
"","image-keyboard-response","483","666632","0.0-8.0-1.78","LF","xtld2mlddm","1280","720","de","ek05an20","null","","","","","","","","learning/Slide159.JPG","null","","","","",""
"","html-keyboard-response","484","667645","0.0-8.0-2.78","LF","xtld2mlddm","1280","720","de","ek05an20","null","","","","learningBlock2","","","","<div style=""font-size:60px;""> </div>","null","LF","learning/Slide159.JPG","This is a dep:","",""
"","html-keyboard-response","485","668658","0.0-8.0-0.79","LF","xtld2mlddm","1280","720","de","ek05an20","null","","","","learningBlock2","","","","This is a wug:","null","","","","",""
"","image-keyboard-response","486","668988","0.0-8.0-1.79","LF","xtld2mlddm","1280","720","de","ek05an20","null","","","","","","","","learning/Slide160.JPG","null","","","","",""
"","html-keyboard-response","487","669993","0.0-8.0-2.79","LF","xtld2mlddm","1280","720","de","ek05an20","null","","","","learningBlock2","","","","<div style=""font-size:60px;""> </div>","null","LF","learning/Slide160.JPG","This is a wug:","",""
"","resize2","488","674312","0.0-9.0","LF","xtld2mlddm","1280","720","de","ek05an20","","","","","","","104","1.04","","","","","","",""
"","instructions","489","683792","0.0-10.0","LF","xtld2mlddm","1280","720","de","ek05an20","NA","","","[{""page_index"":0,""viewing_time"":9478.760000085458}]","instructions","","","","","","","","","",""
