"success","trial_type","trial_index","time_elapsed","internal_node_id","condition","subject","screen_width","screen_height","language","codeword","rt","responses","url","view_history","test_part","final_height_px","final_width_px","scale_factor","stimulus","key_press","learningType","presentedImage","presentedLabel","button_pressed","response"
"true","fullscreen","0","2291","0.0-0.0","FL","wuvcv75zvq","1280","720","de","VA04RD11","","","","","","","","","","","","","","",""
"","survey-html-form","1","4472","0.0-1.0","FL","wuvcv75zvq","1280","720","de","VA04RD11","2175","{""language"":""de""}","","","","","","","","","","","","",""
"","external-html","2","13311","0.0-2.0-0.0","FL","wuvcv75zvq","1280","720","de","VA04RD11","8832","","text/information.html","","","","","","","","","","","",""
"","external-html","3","22509","0.0-2.0-1.0","FL","wuvcv75zvq","1280","720","de","VA04RD11","9184","","text/consent.html","","","","","","","","","","","",""
"","survey-html-form","4","113392","0.0-2.0-2.0","FL","wuvcv75zvq","1280","720","de","VA04RD11","90880","{""codeword_enter"":""VA04RD11""}","","","","","","","","","","","","",""
"","instructions","5","133572","0.0-4.0","FL","wuvcv75zvq","1280","720","de","VA04RD11","NA","","","[{""page_index"":0,""viewing_time"":5069},{""page_index"":1,""viewing_time"":13606}]","instructions","","","","","","","","","",""
"","resize","6","200996","0.0-5.0","FL","wuvcv75zvq","1280","720","de","VA04RD11","","","","","","","358","2.273015873015873","","","","","","",""
"","image-keyboard-response","7","201176","0.0-6.0-0.0","FL","wuvcv75zvq","1280","720","de","VA04RD11","null","","","","","","","","learning/Slide1.JPG","null","","","","",""
"","html-keyboard-response","8","202328","0.0-6.0-1.0","FL","wuvcv75zvq","1280","720","de","VA04RD11","null","","","","learningBlock1","","","","That was a tob.","null","","","","",""
"","html-keyboard-response","9","203330","0.0-6.0-2.0","FL","wuvcv75zvq","1280","720","de","VA04RD11","null","","","","learningBlock1","","","","<div style=""font-size:60px;""> </div>","null","FL","learning/Slide1.JPG","That was a tob.","",""
"","image-keyboard-response","10","203506","0.0-6.0-0.1","FL","wuvcv75zvq","1280","720","de","VA04RD11","null","","","","","","","","learning/Slide2.JPG","null","","","","",""
"","html-keyboard-response","11","204660","0.0-6.0-1.1","FL","wuvcv75zvq","1280","720","de","VA04RD11","null","","","","learningBlock1","","","","That was a wug.","null","","","","",""
"","html-keyboard-response","12","205662","0.0-6.0-2.1","FL","wuvcv75zvq","1280","720","de","VA04RD11","null","","","","learningBlock1","","","","<div style=""font-size:60px;""> </div>","null","FL","learning/Slide2.JPG","That was a wug.","",""
"","image-keyboard-response","13","205838","0.0-6.0-0.2","FL","wuvcv75zvq","1280","720","de","VA04RD11","null","","","","","","","","learning/Slide3.JPG","null","","","","",""
"","html-keyboard-response","14","206989","0.0-6.0-1.2","FL","wuvcv75zvq","1280","720","de","VA04RD11","null","","","","learningBlock1","","","","That was a bim.","null","","","","",""
"","html-keyboard-response","15","207991","0.0-6.0-2.2","FL","wuvcv75zvq","1280","720","de","VA04RD11","null","","","","learningBlock1","","","","<div style=""font-size:60px;""> </div>","null","FL","learning/Slide3.JPG","That was a bim.","",""
"","image-keyboard-response","16","208167","0.0-6.0-0.3","FL","wuvcv75zvq","1280","720","de","VA04RD11","null","","","","","","","","learning/Slide4.JPG","null","","","","",""
"","html-keyboard-response","17","209321","0.0-6.0-1.3","FL","wuvcv75zvq","1280","720","de","VA04RD11","null","","","","learningBlock1","","","","That was a dep.","null","","","","",""
"","html-keyboard-response","18","210323","0.0-6.0-2.3","FL","wuvcv75zvq","1280","720","de","VA04RD11","null","","","","learningBlock1","","","","<div style=""font-size:60px;""> </div>","null","FL","learning/Slide4.JPG","That was a dep.","",""
"","image-keyboard-response","19","210500","0.0-6.0-0.4","FL","wuvcv75zvq","1280","720","de","VA04RD11","null","","","","","","","","learning/Slide5.JPG","null","","","","",""
"","html-keyboard-response","20","211699","0.0-6.0-1.4","FL","wuvcv75zvq","1280","720","de","VA04RD11","null","","","","learningBlock1","","","","That was a wug.","null","","","","",""
"","html-keyboard-response","21","212700","0.0-6.0-2.4","FL","wuvcv75zvq","1280","720","de","VA04RD11","null","","","","learningBlock1","","","","<div style=""font-size:60px;""> </div>","null","FL","learning/Slide5.JPG","That was a wug.","",""
"","image-keyboard-response","22","212877","0.0-6.0-0.5","FL","wuvcv75zvq","1280","720","de","VA04RD11","null","","","","","","","","learning/Slide6.JPG","null","","","","",""
"","html-keyboard-response","23","214030","0.0-6.0-1.5","FL","wuvcv75zvq","1280","720","de","VA04RD11","null","","","","learningBlock1","","","","That was a dep.","null","","","","",""
"","html-keyboard-response","24","215031","0.0-6.0-2.5","FL","wuvcv75zvq","1280","720","de","VA04RD11","null","","","","learningBlock1","","","","<div style=""font-size:60px;""> </div>","null","FL","learning/Slide6.JPG","That was a dep.","",""
"","image-keyboard-response","25","215210","0.0-6.0-0.6","FL","wuvcv75zvq","1280","720","de","VA04RD11","null","","","","","","","","learning/Slide7.JPG","null","","","","",""
"","html-keyboard-response","26","216364","0.0-6.0-1.6","FL","wuvcv75zvq","1280","720","de","VA04RD11","null","","","","learningBlock1","","","","That was a wug.","null","","","","",""
"","html-keyboard-response","27","217367","0.0-6.0-2.6","FL","wuvcv75zvq","1280","720","de","VA04RD11","null","","","","learningBlock1","","","","<div style=""font-size:60px;""> </div>","null","FL","learning/Slide7.JPG","That was a wug.","",""
"","image-keyboard-response","28","217544","0.0-6.0-0.7","FL","wuvcv75zvq","1280","720","de","VA04RD11","null","","","","","","","","learning/Slide8.JPG","null","","","","",""
"","html-keyboard-response","29","218696","0.0-6.0-1.7","FL","wuvcv75zvq","1280","720","de","VA04RD11","null","","","","learningBlock1","","","","That was a bim.","null","","","","",""
"","html-keyboard-response","30","219700","0.0-6.0-2.7","FL","wuvcv75zvq","1280","720","de","VA04RD11","null","","","","learningBlock1","","","","<div style=""font-size:60px;""> </div>","null","FL","learning/Slide8.JPG","That was a bim.","",""
"","image-keyboard-response","31","219877","0.0-6.0-0.8","FL","wuvcv75zvq","1280","720","de","VA04RD11","null","","","","","","","","learning/Slide9.JPG","null","","","","",""
"","html-keyboard-response","32","221031","0.0-6.0-1.8","FL","wuvcv75zvq","1280","720","de","VA04RD11","null","","","","learningBlock1","","","","That was a wug.","null","","","","",""
"","html-keyboard-response","33","222035","0.0-6.0-2.8","FL","wuvcv75zvq","1280","720","de","VA04RD11","null","","","","learningBlock1","","","","<div style=""font-size:60px;""> </div>","null","FL","learning/Slide9.JPG","That was a wug.","",""
"","image-keyboard-response","34","222212","0.0-6.0-0.9","FL","wuvcv75zvq","1280","720","de","VA04RD11","null","","","","","","","","learning/Slide10.JPG","null","","","","",""
"","html-keyboard-response","35","223405","0.0-6.0-1.9","FL","wuvcv75zvq","1280","720","de","VA04RD11","null","","","","learningBlock1","","","","That was a dep.","null","","","","",""
"","html-keyboard-response","36","224503","0.0-6.0-2.9","FL","wuvcv75zvq","1280","720","de","VA04RD11","null","","","","learningBlock1","","","","<div style=""font-size:60px;""> </div>","null","FL","learning/Slide10.JPG","That was a dep.","",""
"","image-keyboard-response","37","224680","0.0-6.0-0.10","FL","wuvcv75zvq","1280","720","de","VA04RD11","null","","","","","","","","learning/Slide11.JPG","null","","","","",""
"","html-keyboard-response","38","225834","0.0-6.0-1.10","FL","wuvcv75zvq","1280","720","de","VA04RD11","null","","","","learningBlock1","","","","That was a tob.","null","","","","",""
"","html-keyboard-response","39","226837","0.0-6.0-2.10","FL","wuvcv75zvq","1280","720","de","VA04RD11","null","","","","learningBlock1","","","","<div style=""font-size:60px;""> </div>","null","FL","learning/Slide11.JPG","That was a tob.","",""
"","image-keyboard-response","40","227015","0.0-6.0-0.11","FL","wuvcv75zvq","1280","720","de","VA04RD11","null","","","","","","","","learning/Slide12.JPG","null","","","","",""
"","html-keyboard-response","41","228168","0.0-6.0-1.11","FL","wuvcv75zvq","1280","720","de","VA04RD11","null","","","","learningBlock1","","","","That was a dep.","null","","","","",""
"","html-keyboard-response","42","229168","0.0-6.0-2.11","FL","wuvcv75zvq","1280","720","de","VA04RD11","null","","","","learningBlock1","","","","<div style=""font-size:60px;""> </div>","null","FL","learning/Slide12.JPG","That was a dep.","",""
"","image-keyboard-response","43","229346","0.0-6.0-0.12","FL","wuvcv75zvq","1280","720","de","VA04RD11","null","","","","","","","","learning/Slide13.JPG","null","","","","",""
"","html-keyboard-response","44","230499","0.0-6.0-1.12","FL","wuvcv75zvq","1280","720","de","VA04RD11","null","","","","learningBlock1","","","","That was a bim.","null","","","","",""
"","html-keyboard-response","45","231501","0.0-6.0-2.12","FL","wuvcv75zvq","1280","720","de","VA04RD11","null","","","","learningBlock1","","","","<div style=""font-size:60px;""> </div>","null","FL","learning/Slide13.JPG","That was a bim.","",""
"","image-keyboard-response","46","231677","0.0-6.0-0.13","FL","wuvcv75zvq","1280","720","de","VA04RD11","null","","","","","","","","learning/Slide14.JPG","null","","","","",""
"","html-keyboard-response","47","232832","0.0-6.0-1.13","FL","wuvcv75zvq","1280","720","de","VA04RD11","null","","","","learningBlock1","","","","That was a wug.","null","","","","",""
"","html-keyboard-response","48","233873","0.0-6.0-2.13","FL","wuvcv75zvq","1280","720","de","VA04RD11","null","","","","learningBlock1","","","","<div style=""font-size:60px;""> </div>","null","FL","learning/Slide14.JPG","That was a wug.","",""
"","image-keyboard-response","49","234052","0.0-6.0-0.14","FL","wuvcv75zvq","1280","720","de","VA04RD11","null","","","","","","","","learning/Slide15.JPG","null","","","","",""
"","html-keyboard-response","50","235204","0.0-6.0-1.14","FL","wuvcv75zvq","1280","720","de","VA04RD11","null","","","","learningBlock1","","","","That was a tob.","null","","","","",""
"","html-keyboard-response","51","236205","0.0-6.0-2.14","FL","wuvcv75zvq","1280","720","de","VA04RD11","null","","","","learningBlock1","","","","<div style=""font-size:60px;""> </div>","null","FL","learning/Slide15.JPG","That was a tob.","",""
"","image-keyboard-response","52","236381","0.0-6.0-0.15","FL","wuvcv75zvq","1280","720","de","VA04RD11","null","","","","","","","","learning/Slide16.JPG","null","","","","",""
"","html-keyboard-response","53","237536","0.0-6.0-1.15","FL","wuvcv75zvq","1280","720","de","VA04RD11","null","","","","learningBlock1","","","","That was a dep.","null","","","","",""
"","html-keyboard-response","54","238537","0.0-6.0-2.15","FL","wuvcv75zvq","1280","720","de","VA04RD11","null","","","","learningBlock1","","","","<div style=""font-size:60px;""> </div>","null","FL","learning/Slide16.JPG","That was a dep.","",""
"","image-keyboard-response","55","238714","0.0-6.0-0.16","FL","wuvcv75zvq","1280","720","de","VA04RD11","null","","","","","","","","learning/Slide17.JPG","null","","","","",""
"","html-keyboard-response","56","239866","0.0-6.0-1.16","FL","wuvcv75zvq","1280","720","de","VA04RD11","null","","","","learningBlock1","","","","That was a bim.","null","","","","",""
"","html-keyboard-response","57","240868","0.0-6.0-2.16","FL","wuvcv75zvq","1280","720","de","VA04RD11","null","","","","learningBlock1","","","","<div style=""font-size:60px;""> </div>","null","FL","learning/Slide17.JPG","That was a bim.","",""
"","image-keyboard-response","58","241044","0.0-6.0-0.17","FL","wuvcv75zvq","1280","720","de","VA04RD11","null","","","","","","","","learning/Slide18.JPG","null","","","","",""
"","html-keyboard-response","59","242208","0.0-6.0-1.17","FL","wuvcv75zvq","1280","720","de","VA04RD11","null","","","","learningBlock1","","","","That was a tob.","null","","","","",""
"","html-keyboard-response","60","243210","0.0-6.0-2.17","FL","wuvcv75zvq","1280","720","de","VA04RD11","null","","","","learningBlock1","","","","<div style=""font-size:60px;""> </div>","null","FL","learning/Slide18.JPG","That was a tob.","",""
"","image-keyboard-response","61","243388","0.0-6.0-0.18","FL","wuvcv75zvq","1280","720","de","VA04RD11","null","","","","","","","","learning/Slide19.JPG","null","","","","",""
"","html-keyboard-response","62","244541","0.0-6.0-1.18","FL","wuvcv75zvq","1280","720","de","VA04RD11","null","","","","learningBlock1","","","","That was a wug.","null","","","","",""
"","html-keyboard-response","63","245542","0.0-6.0-2.18","FL","wuvcv75zvq","1280","720","de","VA04RD11","null","","","","learningBlock1","","","","<div style=""font-size:60px;""> </div>","null","FL","learning/Slide19.JPG","That was a wug.","",""
"","image-keyboard-response","64","245720","0.0-6.0-0.19","FL","wuvcv75zvq","1280","720","de","VA04RD11","null","","","","","","","","learning/Slide20.JPG","null","","","","",""
"","html-keyboard-response","65","246873","0.0-6.0-1.19","FL","wuvcv75zvq","1280","720","de","VA04RD11","null","","","","learningBlock1","","","","That was a bim.","null","","","","",""
"","html-keyboard-response","66","247874","0.0-6.0-2.19","FL","wuvcv75zvq","1280","720","de","VA04RD11","null","","","","learningBlock1","","","","<div style=""font-size:60px;""> </div>","null","FL","learning/Slide20.JPG","That was a bim.","",""
"","image-keyboard-response","67","248051","0.0-6.0-0.20","FL","wuvcv75zvq","1280","720","de","VA04RD11","null","","","","","","","","learning/Slide21.JPG","null","","","","",""
"","html-keyboard-response","68","249204","0.0-6.0-1.20","FL","wuvcv75zvq","1280","720","de","VA04RD11","null","","","","learningBlock1","","","","That was a dep.","null","","","","",""
"","html-keyboard-response","69","250205","0.0-6.0-2.20","FL","wuvcv75zvq","1280","720","de","VA04RD11","null","","","","learningBlock1","","","","<div style=""font-size:60px;""> </div>","null","FL","learning/Slide21.JPG","That was a dep.","",""
"","image-keyboard-response","70","250382","0.0-6.0-0.21","FL","wuvcv75zvq","1280","720","de","VA04RD11","null","","","","","","","","learning/Slide22.JPG","null","","","","",""
"","html-keyboard-response","71","251535","0.0-6.0-1.21","FL","wuvcv75zvq","1280","720","de","VA04RD11","null","","","","learningBlock1","","","","That was a bim.","null","","","","",""
"","html-keyboard-response","72","252538","0.0-6.0-2.21","FL","wuvcv75zvq","1280","720","de","VA04RD11","null","","","","learningBlock1","","","","<div style=""font-size:60px;""> </div>","null","FL","learning/Slide22.JPG","That was a bim.","",""
"","image-keyboard-response","73","252714","0.0-6.0-0.22","FL","wuvcv75zvq","1280","720","de","VA04RD11","null","","","","","","","","learning/Slide23.JPG","null","","","","",""
"","html-keyboard-response","74","253898","0.0-6.0-1.22","FL","wuvcv75zvq","1280","720","de","VA04RD11","null","","","","learningBlock1","","","","That was a tob.","null","","","","",""
"","html-keyboard-response","75","254900","0.0-6.0-2.22","FL","wuvcv75zvq","1280","720","de","VA04RD11","null","","","","learningBlock1","","","","<div style=""font-size:60px;""> </div>","null","FL","learning/Slide23.JPG","That was a tob.","",""
"","image-keyboard-response","76","255077","0.0-6.0-0.23","FL","wuvcv75zvq","1280","720","de","VA04RD11","null","","","","","","","","learning/Slide24.JPG","null","","","","",""
"","html-keyboard-response","77","256232","0.0-6.0-1.23","FL","wuvcv75zvq","1280","720","de","VA04RD11","null","","","","learningBlock1","","","","That was a wug.","null","","","","",""
"","html-keyboard-response","78","257234","0.0-6.0-2.23","FL","wuvcv75zvq","1280","720","de","VA04RD11","null","","","","learningBlock1","","","","<div style=""font-size:60px;""> </div>","null","FL","learning/Slide24.JPG","That was a wug.","",""
"","image-keyboard-response","79","257410","0.0-6.0-0.24","FL","wuvcv75zvq","1280","720","de","VA04RD11","null","","","","","","","","learning/Slide25.JPG","null","","","","",""
"","html-keyboard-response","80","258562","0.0-6.0-1.24","FL","wuvcv75zvq","1280","720","de","VA04RD11","null","","","","learningBlock1","","","","That was a dep.","null","","","","",""
"","html-keyboard-response","81","259563","0.0-6.0-2.24","FL","wuvcv75zvq","1280","720","de","VA04RD11","null","","","","learningBlock1","","","","<div style=""font-size:60px;""> </div>","null","FL","learning/Slide25.JPG","That was a dep.","",""
"","image-keyboard-response","82","259740","0.0-6.0-0.25","FL","wuvcv75zvq","1280","720","de","VA04RD11","null","","","","","","","","learning/Slide26.JPG","null","","","","",""
"","html-keyboard-response","83","260894","0.0-6.0-1.25","FL","wuvcv75zvq","1280","720","de","VA04RD11","null","","","","learningBlock1","","","","That was a wug.","null","","","","",""
"","html-keyboard-response","84","261895","0.0-6.0-2.25","FL","wuvcv75zvq","1280","720","de","VA04RD11","null","","","","learningBlock1","","","","<div style=""font-size:60px;""> </div>","null","FL","learning/Slide26.JPG","That was a wug.","",""
"","image-keyboard-response","85","262073","0.0-6.0-0.26","FL","wuvcv75zvq","1280","720","de","VA04RD11","null","","","","","","","","learning/Slide27.JPG","null","","","","",""
"","html-keyboard-response","86","263226","0.0-6.0-1.26","FL","wuvcv75zvq","1280","720","de","VA04RD11","null","","","","learningBlock1","","","","That was a bim.","null","","","","",""
"","html-keyboard-response","87","264228","0.0-6.0-2.26","FL","wuvcv75zvq","1280","720","de","VA04RD11","null","","","","learningBlock1","","","","<div style=""font-size:60px;""> </div>","null","FL","learning/Slide27.JPG","That was a bim.","",""
"","image-keyboard-response","88","264416","0.0-6.0-0.27","FL","wuvcv75zvq","1280","720","de","VA04RD11","null","","","","","","","","learning/Slide28.JPG","null","","","","",""
"","html-keyboard-response","89","265569","0.0-6.0-1.27","FL","wuvcv75zvq","1280","720","de","VA04RD11","null","","","","learningBlock1","","","","That was a dep.","null","","","","",""
"","html-keyboard-response","90","266571","0.0-6.0-2.27","FL","wuvcv75zvq","1280","720","de","VA04RD11","null","","","","learningBlock1","","","","<div style=""font-size:60px;""> </div>","null","FL","learning/Slide28.JPG","That was a dep.","",""
"","image-keyboard-response","91","266747","0.0-6.0-0.28","FL","wuvcv75zvq","1280","720","de","VA04RD11","null","","","","","","","","learning/Slide29.JPG","null","","","","",""
"","html-keyboard-response","92","267899","0.0-6.0-1.28","FL","wuvcv75zvq","1280","720","de","VA04RD11","null","","","","learningBlock1","","","","That was a tob.","null","","","","",""
"","html-keyboard-response","93","268901","0.0-6.0-2.28","FL","wuvcv75zvq","1280","720","de","VA04RD11","null","","","","learningBlock1","","","","<div style=""font-size:60px;""> </div>","null","FL","learning/Slide29.JPG","That was a tob.","",""
"","image-keyboard-response","94","269078","0.0-6.0-0.29","FL","wuvcv75zvq","1280","720","de","VA04RD11","null","","","","","","","","learning/Slide30.JPG","null","","","","",""
"","html-keyboard-response","95","270230","0.0-6.0-1.29","FL","wuvcv75zvq","1280","720","de","VA04RD11","null","","","","learningBlock1","","","","That was a dep.","null","","","","",""
"","html-keyboard-response","96","271231","0.0-6.0-2.29","FL","wuvcv75zvq","1280","720","de","VA04RD11","null","","","","learningBlock1","","","","<div style=""font-size:60px;""> </div>","null","FL","learning/Slide30.JPG","That was a dep.","",""
"","image-keyboard-response","97","271407","0.0-6.0-0.30","FL","wuvcv75zvq","1280","720","de","VA04RD11","null","","","","","","","","learning/Slide31.JPG","null","","","","",""
"","html-keyboard-response","98","272560","0.0-6.0-1.30","FL","wuvcv75zvq","1280","720","de","VA04RD11","null","","","","learningBlock1","","","","That was a wug.","null","","","","",""
"","html-keyboard-response","99","273561","0.0-6.0-2.30","FL","wuvcv75zvq","1280","720","de","VA04RD11","null","","","","learningBlock1","","","","<div style=""font-size:60px;""> </div>","null","FL","learning/Slide31.JPG","That was a wug.","",""
"","image-keyboard-response","100","273738","0.0-6.0-0.31","FL","wuvcv75zvq","1280","720","de","VA04RD11","null","","","","","","","","learning/Slide32.JPG","null","","","","",""
"","html-keyboard-response","101","274892","0.0-6.0-1.31","FL","wuvcv75zvq","1280","720","de","VA04RD11","null","","","","learningBlock1","","","","That was a tob.","null","","","","",""
"","html-keyboard-response","102","275894","0.0-6.0-2.31","FL","wuvcv75zvq","1280","720","de","VA04RD11","null","","","","learningBlock1","","","","<div style=""font-size:60px;""> </div>","null","FL","learning/Slide32.JPG","That was a tob.","",""
"","image-keyboard-response","103","276072","0.0-6.0-0.32","FL","wuvcv75zvq","1280","720","de","VA04RD11","null","","","","","","","","learning/Slide33.JPG","null","","","","",""
"","html-keyboard-response","104","277226","0.0-6.0-1.32","FL","wuvcv75zvq","1280","720","de","VA04RD11","null","","","","learningBlock1","","","","That was a bim.","null","","","","",""
"","html-keyboard-response","105","278262","0.0-6.0-2.32","FL","wuvcv75zvq","1280","720","de","VA04RD11","null","","","","learningBlock1","","","","<div style=""font-size:60px;""> </div>","null","FL","learning/Slide33.JPG","That was a bim.","",""
"","image-keyboard-response","106","278439","0.0-6.0-0.33","FL","wuvcv75zvq","1280","720","de","VA04RD11","null","","","","","","","","learning/Slide34.JPG","null","","","","",""
"","html-keyboard-response","107","279593","0.0-6.0-1.33","FL","wuvcv75zvq","1280","720","de","VA04RD11","null","","","","learningBlock1","","","","That was a tob.","null","","","","",""
"","html-keyboard-response","108","280594","0.0-6.0-2.33","FL","wuvcv75zvq","1280","720","de","VA04RD11","null","","","","learningBlock1","","","","<div style=""font-size:60px;""> </div>","null","FL","learning/Slide34.JPG","That was a tob.","",""
"","image-keyboard-response","109","280771","0.0-6.0-0.34","FL","wuvcv75zvq","1280","720","de","VA04RD11","null","","","","","","","","learning/Slide35.JPG","null","","","","",""
"","html-keyboard-response","110","281924","0.0-6.0-1.34","FL","wuvcv75zvq","1280","720","de","VA04RD11","null","","","","learningBlock1","","","","That was a bim.","null","","","","",""
"","html-keyboard-response","111","282925","0.0-6.0-2.34","FL","wuvcv75zvq","1280","720","de","VA04RD11","null","","","","learningBlock1","","","","<div style=""font-size:60px;""> </div>","null","FL","learning/Slide35.JPG","That was a bim.","",""
"","image-keyboard-response","112","283103","0.0-6.0-0.35","FL","wuvcv75zvq","1280","720","de","VA04RD11","null","","","","","","","","learning/Slide36.JPG","null","","","","",""
"","html-keyboard-response","113","284255","0.0-6.0-1.35","FL","wuvcv75zvq","1280","720","de","VA04RD11","null","","","","learningBlock1","","","","That was a dep.","null","","","","",""
"","html-keyboard-response","114","285257","0.0-6.0-2.35","FL","wuvcv75zvq","1280","720","de","VA04RD11","null","","","","learningBlock1","","","","<div style=""font-size:60px;""> </div>","null","FL","learning/Slide36.JPG","That was a dep.","",""
"","image-keyboard-response","115","285433","0.0-6.0-0.36","FL","wuvcv75zvq","1280","720","de","VA04RD11","null","","","","","","","","learning/Slide37.JPG","null","","","","",""
"","html-keyboard-response","116","286587","0.0-6.0-1.36","FL","wuvcv75zvq","1280","720","de","VA04RD11","null","","","","learningBlock1","","","","That was a tob.","null","","","","",""
"","html-keyboard-response","117","287588","0.0-6.0-2.36","FL","wuvcv75zvq","1280","720","de","VA04RD11","null","","","","learningBlock1","","","","<div style=""font-size:60px;""> </div>","null","FL","learning/Slide37.JPG","That was a tob.","",""
"","image-keyboard-response","118","287765","0.0-6.0-0.37","FL","wuvcv75zvq","1280","720","de","VA04RD11","null","","","","","","","","learning/Slide38.JPG","null","","","","",""
"","html-keyboard-response","119","288917","0.0-6.0-1.37","FL","wuvcv75zvq","1280","720","de","VA04RD11","null","","","","learningBlock1","","","","That was a wug.","null","","","","",""
"","html-keyboard-response","120","289975","0.0-6.0-2.37","FL","wuvcv75zvq","1280","720","de","VA04RD11","null","","","","learningBlock1","","","","<div style=""font-size:60px;""> </div>","null","FL","learning/Slide38.JPG","That was a wug.","",""
"","image-keyboard-response","121","290151","0.0-6.0-0.38","FL","wuvcv75zvq","1280","720","de","VA04RD11","null","","","","","","","","learning/Slide39.JPG","null","","","","",""
"","html-keyboard-response","122","291305","0.0-6.0-1.38","FL","wuvcv75zvq","1280","720","de","VA04RD11","null","","","","learningBlock1","","","","That was a bim.","null","","","","",""
"","html-keyboard-response","123","292306","0.0-6.0-2.38","FL","wuvcv75zvq","1280","720","de","VA04RD11","null","","","","learningBlock1","","","","<div style=""font-size:60px;""> </div>","null","FL","learning/Slide39.JPG","That was a bim.","",""
"","image-keyboard-response","124","292484","0.0-6.0-0.39","FL","wuvcv75zvq","1280","720","de","VA04RD11","null","","","","","","","","learning/Slide40.JPG","null","","","","",""
"","html-keyboard-response","125","293636","0.0-6.0-1.39","FL","wuvcv75zvq","1280","720","de","VA04RD11","null","","","","learningBlock1","","","","That was a tob.","null","","","","",""
"","html-keyboard-response","126","294639","0.0-6.0-2.39","FL","wuvcv75zvq","1280","720","de","VA04RD11","null","","","","learningBlock1","","","","<div style=""font-size:60px;""> </div>","null","FL","learning/Slide40.JPG","That was a tob.","",""
"","image-keyboard-response","127","294815","0.0-6.0-0.40","FL","wuvcv75zvq","1280","720","de","VA04RD11","null","","","","","","","","learning/Slide41.JPG","null","","","","",""
"","html-keyboard-response","128","295968","0.0-6.0-1.40","FL","wuvcv75zvq","1280","720","de","VA04RD11","null","","","","learningBlock1","","","","That was a bim.","null","","","","",""
"","html-keyboard-response","129","296969","0.0-6.0-2.40","FL","wuvcv75zvq","1280","720","de","VA04RD11","null","","","","learningBlock1","","","","<div style=""font-size:60px;""> </div>","null","FL","learning/Slide41.JPG","That was a bim.","",""
"","image-keyboard-response","130","297145","0.0-6.0-0.41","FL","wuvcv75zvq","1280","720","de","VA04RD11","null","","","","","","","","learning/Slide42.JPG","null","","","","",""
"","html-keyboard-response","131","298311","0.0-6.0-1.41","FL","wuvcv75zvq","1280","720","de","VA04RD11","null","","","","learningBlock1","","","","That was a dep.","null","","","","",""
"","html-keyboard-response","132","299315","0.0-6.0-2.41","FL","wuvcv75zvq","1280","720","de","VA04RD11","null","","","","learningBlock1","","","","<div style=""font-size:60px;""> </div>","null","FL","learning/Slide42.JPG","That was a dep.","",""
"","image-keyboard-response","133","299493","0.0-6.0-0.42","FL","wuvcv75zvq","1280","720","de","VA04RD11","null","","","","","","","","learning/Slide43.JPG","null","","","","",""
"","html-keyboard-response","134","300648","0.0-6.0-1.42","FL","wuvcv75zvq","1280","720","de","VA04RD11","null","","","","learningBlock1","","","","That was a wug.","null","","","","",""
"","html-keyboard-response","135","301650","0.0-6.0-2.42","FL","wuvcv75zvq","1280","720","de","VA04RD11","null","","","","learningBlock1","","","","<div style=""font-size:60px;""> </div>","null","FL","learning/Slide43.JPG","That was a wug.","",""
"","image-keyboard-response","136","301827","0.0-6.0-0.43","FL","wuvcv75zvq","1280","720","de","VA04RD11","null","","","","","","","","learning/Slide44.JPG","null","","","","",""
"","html-keyboard-response","137","302981","0.0-6.0-1.43","FL","wuvcv75zvq","1280","720","de","VA04RD11","null","","","","learningBlock1","","","","That was a bim.","null","","","","",""
"","html-keyboard-response","138","303983","0.0-6.0-2.43","FL","wuvcv75zvq","1280","720","de","VA04RD11","null","","","","learningBlock1","","","","<div style=""font-size:60px;""> </div>","null","FL","learning/Slide44.JPG","That was a bim.","",""
"","image-keyboard-response","139","304160","0.0-6.0-0.44","FL","wuvcv75zvq","1280","720","de","VA04RD11","null","","","","","","","","learning/Slide45.JPG","null","","","","",""
"","html-keyboard-response","140","305312","0.0-6.0-1.44","FL","wuvcv75zvq","1280","720","de","VA04RD11","null","","","","learningBlock1","","","","That was a wug.","null","","","","",""
"","html-keyboard-response","141","306315","0.0-6.0-2.44","FL","wuvcv75zvq","1280","720","de","VA04RD11","null","","","","learningBlock1","","","","<div style=""font-size:60px;""> </div>","null","FL","learning/Slide45.JPG","That was a wug.","",""
"","image-keyboard-response","142","306492","0.0-6.0-0.45","FL","wuvcv75zvq","1280","720","de","VA04RD11","null","","","","","","","","learning/Slide46.JPG","null","","","","",""
"","html-keyboard-response","143","307645","0.0-6.0-1.45","FL","wuvcv75zvq","1280","720","de","VA04RD11","null","","","","learningBlock1","","","","That was a dep.","null","","","","",""
"","html-keyboard-response","144","308647","0.0-6.0-2.45","FL","wuvcv75zvq","1280","720","de","VA04RD11","null","","","","learningBlock1","","","","<div style=""font-size:60px;""> </div>","null","FL","learning/Slide46.JPG","That was a dep.","",""
"","image-keyboard-response","145","308866","0.0-6.0-0.46","FL","wuvcv75zvq","1280","720","de","VA04RD11","null","","","","","","","","learning/Slide47.JPG","null","","","","",""
"","html-keyboard-response","146","310018","0.0-6.0-1.46","FL","wuvcv75zvq","1280","720","de","VA04RD11","null","","","","learningBlock1","","","","That was a tob.","null","","","","",""
"","html-keyboard-response","147","311042","0.0-6.0-2.46","FL","wuvcv75zvq","1280","720","de","VA04RD11","null","","","","learningBlock1","","","","<div style=""font-size:60px;""> </div>","null","FL","learning/Slide47.JPG","That was a tob.","",""
"","image-keyboard-response","148","311217","0.0-6.0-0.47","FL","wuvcv75zvq","1280","720","de","VA04RD11","null","","","","","","","","learning/Slide48.JPG","null","","","","",""
"","html-keyboard-response","149","312371","0.0-6.0-1.47","FL","wuvcv75zvq","1280","720","de","VA04RD11","null","","","","learningBlock1","","","","That was a bim.","null","","","","",""
"","html-keyboard-response","150","313373","0.0-6.0-2.47","FL","wuvcv75zvq","1280","720","de","VA04RD11","null","","","","learningBlock1","","","","<div style=""font-size:60px;""> </div>","null","FL","learning/Slide48.JPG","That was a bim.","",""
"","image-keyboard-response","151","313551","0.0-6.0-0.48","FL","wuvcv75zvq","1280","720","de","VA04RD11","null","","","","","","","","learning/Slide49.JPG","null","","","","",""
"","html-keyboard-response","152","314705","0.0-6.0-1.48","FL","wuvcv75zvq","1280","720","de","VA04RD11","null","","","","learningBlock1","","","","That was a dep.","null","","","","",""
"","html-keyboard-response","153","315706","0.0-6.0-2.48","FL","wuvcv75zvq","1280","720","de","VA04RD11","null","","","","learningBlock1","","","","<div style=""font-size:60px;""> </div>","null","FL","learning/Slide49.JPG","That was a dep.","",""
"","image-keyboard-response","154","315884","0.0-6.0-0.49","FL","wuvcv75zvq","1280","720","de","VA04RD11","null","","","","","","","","learning/Slide50.JPG","null","","","","",""
"","html-keyboard-response","155","317037","0.0-6.0-1.49","FL","wuvcv75zvq","1280","720","de","VA04RD11","null","","","","learningBlock1","","","","That was a tob.","null","","","","",""
"","html-keyboard-response","156","318040","0.0-6.0-2.49","FL","wuvcv75zvq","1280","720","de","VA04RD11","null","","","","learningBlock1","","","","<div style=""font-size:60px;""> </div>","null","FL","learning/Slide50.JPG","That was a tob.","",""
"","image-keyboard-response","157","318217","0.0-6.0-0.50","FL","wuvcv75zvq","1280","720","de","VA04RD11","null","","","","","","","","learning/Slide51.JPG","null","","","","",""
"","html-keyboard-response","158","319371","0.0-6.0-1.50","FL","wuvcv75zvq","1280","720","de","VA04RD11","null","","","","learningBlock1","","","","That was a bim.","null","","","","",""
"","html-keyboard-response","159","320372","0.0-6.0-2.50","FL","wuvcv75zvq","1280","720","de","VA04RD11","null","","","","learningBlock1","","","","<div style=""font-size:60px;""> </div>","null","FL","learning/Slide51.JPG","That was a bim.","",""
"","image-keyboard-response","160","320549","0.0-6.0-0.51","FL","wuvcv75zvq","1280","720","de","VA04RD11","null","","","","","","","","learning/Slide52.JPG","null","","","","",""
"","html-keyboard-response","161","321701","0.0-6.0-1.51","FL","wuvcv75zvq","1280","720","de","VA04RD11","null","","","","learningBlock1","","","","That was a wug.","null","","","","",""
"","html-keyboard-response","162","322702","0.0-6.0-2.51","FL","wuvcv75zvq","1280","720","de","VA04RD11","null","","","","learningBlock1","","","","<div style=""font-size:60px;""> </div>","null","FL","learning/Slide52.JPG","That was a wug.","",""
"","image-keyboard-response","163","322878","0.0-6.0-0.52","FL","wuvcv75zvq","1280","720","de","VA04RD11","null","","","","","","","","learning/Slide53.JPG","null","","","","",""
"","html-keyboard-response","164","324032","0.0-6.0-1.52","FL","wuvcv75zvq","1280","720","de","VA04RD11","null","","","","learningBlock1","","","","That was a tob.","null","","","","",""
"","html-keyboard-response","165","325034","0.0-6.0-2.52","FL","wuvcv75zvq","1280","720","de","VA04RD11","null","","","","learningBlock1","","","","<div style=""font-size:60px;""> </div>","null","FL","learning/Slide53.JPG","That was a tob.","",""
"","image-keyboard-response","166","325211","0.0-6.0-0.53","FL","wuvcv75zvq","1280","720","de","VA04RD11","null","","","","","","","","learning/Slide54.JPG","null","","","","",""
"","html-keyboard-response","167","326365","0.0-6.0-1.53","FL","wuvcv75zvq","1280","720","de","VA04RD11","null","","","","learningBlock1","","","","That was a dep.","null","","","","",""
"","html-keyboard-response","168","327367","0.0-6.0-2.53","FL","wuvcv75zvq","1280","720","de","VA04RD11","null","","","","learningBlock1","","","","<div style=""font-size:60px;""> </div>","null","FL","learning/Slide54.JPG","That was a dep.","",""
"","image-keyboard-response","169","327544","0.0-6.0-0.54","FL","wuvcv75zvq","1280","720","de","VA04RD11","null","","","","","","","","learning/Slide55.JPG","null","","","","",""
"","html-keyboard-response","170","328699","0.0-6.0-1.54","FL","wuvcv75zvq","1280","720","de","VA04RD11","null","","","","learningBlock1","","","","That was a bim.","null","","","","",""
"","html-keyboard-response","171","329701","0.0-6.0-2.54","FL","wuvcv75zvq","1280","720","de","VA04RD11","null","","","","learningBlock1","","","","<div style=""font-size:60px;""> </div>","null","FL","learning/Slide55.JPG","That was a bim.","",""
"","image-keyboard-response","172","329877","0.0-6.0-0.55","FL","wuvcv75zvq","1280","720","de","VA04RD11","null","","","","","","","","learning/Slide56.JPG","null","","","","",""
"","html-keyboard-response","173","331030","0.0-6.0-1.55","FL","wuvcv75zvq","1280","720","de","VA04RD11","null","","","","learningBlock1","","","","That was a tob.","null","","","","",""
"","html-keyboard-response","174","332033","0.0-6.0-2.55","FL","wuvcv75zvq","1280","720","de","VA04RD11","null","","","","learningBlock1","","","","<div style=""font-size:60px;""> </div>","null","FL","learning/Slide56.JPG","That was a tob.","",""
"","image-keyboard-response","175","332211","0.0-6.0-0.56","FL","wuvcv75zvq","1280","720","de","VA04RD11","null","","","","","","","","learning/Slide57.JPG","null","","","","",""
"","html-keyboard-response","176","333366","0.0-6.0-1.56","FL","wuvcv75zvq","1280","720","de","VA04RD11","null","","","","learningBlock1","","","","That was a dep.","null","","","","",""
"","html-keyboard-response","177","334452","0.0-6.0-2.56","FL","wuvcv75zvq","1280","720","de","VA04RD11","null","","","","learningBlock1","","","","<div style=""font-size:60px;""> </div>","null","FL","learning/Slide57.JPG","That was a dep.","",""
"","image-keyboard-response","178","334630","0.0-6.0-0.57","FL","wuvcv75zvq","1280","720","de","VA04RD11","null","","","","","","","","learning/Slide58.JPG","null","","","","",""
"","html-keyboard-response","179","335782","0.0-6.0-1.57","FL","wuvcv75zvq","1280","720","de","VA04RD11","null","","","","learningBlock1","","","","That was a wug.","null","","","","",""
"","html-keyboard-response","180","336782","0.0-6.0-2.57","FL","wuvcv75zvq","1280","720","de","VA04RD11","null","","","","learningBlock1","","","","<div style=""font-size:60px;""> </div>","null","FL","learning/Slide58.JPG","That was a wug.","",""
"","image-keyboard-response","181","336957","0.0-6.0-0.58","FL","wuvcv75zvq","1280","720","de","VA04RD11","null","","","","","","","","learning/Slide59.JPG","null","","","","",""
"","html-keyboard-response","182","338112","0.0-6.0-1.58","FL","wuvcv75zvq","1280","720","de","VA04RD11","null","","","","learningBlock1","","","","That was a dep.","null","","","","",""
"","html-keyboard-response","183","339113","0.0-6.0-2.58","FL","wuvcv75zvq","1280","720","de","VA04RD11","null","","","","learningBlock1","","","","<div style=""font-size:60px;""> </div>","null","FL","learning/Slide59.JPG","That was a dep.","",""
"","image-keyboard-response","184","339290","0.0-6.0-0.59","FL","wuvcv75zvq","1280","720","de","VA04RD11","null","","","","","","","","learning/Slide60.JPG","null","","","","",""
"","html-keyboard-response","185","340442","0.0-6.0-1.59","FL","wuvcv75zvq","1280","720","de","VA04RD11","null","","","","learningBlock1","","","","That was a wug.","null","","","","",""
"","html-keyboard-response","186","341444","0.0-6.0-2.59","FL","wuvcv75zvq","1280","720","de","VA04RD11","null","","","","learningBlock1","","","","<div style=""font-size:60px;""> </div>","null","FL","learning/Slide60.JPG","That was a wug.","",""
"","image-keyboard-response","187","341621","0.0-6.0-0.60","FL","wuvcv75zvq","1280","720","de","VA04RD11","null","","","","","","","","learning/Slide61.JPG","null","","","","",""
"","html-keyboard-response","188","342775","0.0-6.0-1.60","FL","wuvcv75zvq","1280","720","de","VA04RD11","null","","","","learningBlock1","","","","That was a bim.","null","","","","",""
"","html-keyboard-response","189","343776","0.0-6.0-2.60","FL","wuvcv75zvq","1280","720","de","VA04RD11","null","","","","learningBlock1","","","","<div style=""font-size:60px;""> </div>","null","FL","learning/Slide61.JPG","That was a bim.","",""
"","image-keyboard-response","190","343953","0.0-6.0-0.61","FL","wuvcv75zvq","1280","720","de","VA04RD11","null","","","","","","","","learning/Slide62.JPG","null","","","","",""
"","html-keyboard-response","191","345107","0.0-6.0-1.61","FL","wuvcv75zvq","1280","720","de","VA04RD11","null","","","","learningBlock1","","","","That was a dep.","null","","","","",""
"","html-keyboard-response","192","346137","0.0-6.0-2.61","FL","wuvcv75zvq","1280","720","de","VA04RD11","null","","","","learningBlock1","","","","<div style=""font-size:60px;""> </div>","null","FL","learning/Slide62.JPG","That was a dep.","",""
"","image-keyboard-response","193","346314","0.0-6.0-0.62","FL","wuvcv75zvq","1280","720","de","VA04RD11","null","","","","","","","","learning/Slide63.JPG","null","","","","",""
"","html-keyboard-response","194","347466","0.0-6.0-1.62","FL","wuvcv75zvq","1280","720","de","VA04RD11","null","","","","learningBlock1","","","","That was a bim.","null","","","","",""
"","html-keyboard-response","195","348468","0.0-6.0-2.62","FL","wuvcv75zvq","1280","720","de","VA04RD11","null","","","","learningBlock1","","","","<div style=""font-size:60px;""> </div>","null","FL","learning/Slide63.JPG","That was a bim.","",""
"","image-keyboard-response","196","348644","0.0-6.0-0.63","FL","wuvcv75zvq","1280","720","de","VA04RD11","null","","","","","","","","learning/Slide64.JPG","null","","","","",""
"","html-keyboard-response","197","349796","0.0-6.0-1.63","FL","wuvcv75zvq","1280","720","de","VA04RD11","null","","","","learningBlock1","","","","That was a tob.","null","","","","",""
"","html-keyboard-response","198","350798","0.0-6.0-2.63","FL","wuvcv75zvq","1280","720","de","VA04RD11","null","","","","learningBlock1","","","","<div style=""font-size:60px;""> </div>","null","FL","learning/Slide64.JPG","That was a tob.","",""
"","image-keyboard-response","199","350976","0.0-6.0-0.64","FL","wuvcv75zvq","1280","720","de","VA04RD11","null","","","","","","","","learning/Slide65.JPG","null","","","","",""
"","html-keyboard-response","200","352131","0.0-6.0-1.64","FL","wuvcv75zvq","1280","720","de","VA04RD11","null","","","","learningBlock1","","","","That was a wug.","null","","","","",""
"","html-keyboard-response","201","353133","0.0-6.0-2.64","FL","wuvcv75zvq","1280","720","de","VA04RD11","null","","","","learningBlock1","","","","<div style=""font-size:60px;""> </div>","null","FL","learning/Slide65.JPG","That was a wug.","",""
"","image-keyboard-response","202","353309","0.0-6.0-0.65","FL","wuvcv75zvq","1280","720","de","VA04RD11","null","","","","","","","","learning/Slide66.JPG","null","","","","",""
"","html-keyboard-response","203","354463","0.0-6.0-1.65","FL","wuvcv75zvq","1280","720","de","VA04RD11","null","","","","learningBlock1","","","","That was a dep.","null","","","","",""
"","html-keyboard-response","204","355464","0.0-6.0-2.65","FL","wuvcv75zvq","1280","720","de","VA04RD11","null","","","","learningBlock1","","","","<div style=""font-size:60px;""> </div>","null","FL","learning/Slide66.JPG","That was a dep.","",""
"","image-keyboard-response","205","355688","0.0-6.0-0.66","FL","wuvcv75zvq","1280","720","de","VA04RD11","null","","","","","","","","learning/Slide67.JPG","null","","","","",""
"","html-keyboard-response","206","356840","0.0-6.0-1.66","FL","wuvcv75zvq","1280","720","de","VA04RD11","null","","","","learningBlock1","","","","That was a tob.","null","","","","",""
"","html-keyboard-response","207","357841","0.0-6.0-2.66","FL","wuvcv75zvq","1280","720","de","VA04RD11","null","","","","learningBlock1","","","","<div style=""font-size:60px;""> </div>","null","FL","learning/Slide67.JPG","That was a tob.","",""
"","image-keyboard-response","208","358019","0.0-6.0-0.67","FL","wuvcv75zvq","1280","720","de","VA04RD11","null","","","","","","","","learning/Slide68.JPG","null","","","","",""
"","html-keyboard-response","209","359173","0.0-6.0-1.67","FL","wuvcv75zvq","1280","720","de","VA04RD11","null","","","","learningBlock1","","","","That was a wug.","null","","","","",""
"","html-keyboard-response","210","360176","0.0-6.0-2.67","FL","wuvcv75zvq","1280","720","de","VA04RD11","null","","","","learningBlock1","","","","<div style=""font-size:60px;""> </div>","null","FL","learning/Slide68.JPG","That was a wug.","",""
"","image-keyboard-response","211","360353","0.0-6.0-0.68","FL","wuvcv75zvq","1280","720","de","VA04RD11","null","","","","","","","","learning/Slide69.JPG","null","","","","",""
"","html-keyboard-response","212","361508","0.0-6.0-1.68","FL","wuvcv75zvq","1280","720","de","VA04RD11","null","","","","learningBlock1","","","","That was a tob.","null","","","","",""
"","html-keyboard-response","213","362509","0.0-6.0-2.68","FL","wuvcv75zvq","1280","720","de","VA04RD11","null","","","","learningBlock1","","","","<div style=""font-size:60px;""> </div>","null","FL","learning/Slide69.JPG","That was a tob.","",""
"","image-keyboard-response","214","362685","0.0-6.0-0.69","FL","wuvcv75zvq","1280","720","de","VA04RD11","null","","","","","","","","learning/Slide70.JPG","null","","","","",""
"","html-keyboard-response","215","363838","0.0-6.0-1.69","FL","wuvcv75zvq","1280","720","de","VA04RD11","null","","","","learningBlock1","","","","That was a dep.","null","","","","",""
"","html-keyboard-response","216","364839","0.0-6.0-2.69","FL","wuvcv75zvq","1280","720","de","VA04RD11","null","","","","learningBlock1","","","","<div style=""font-size:60px;""> </div>","null","FL","learning/Slide70.JPG","That was a dep.","",""
"","image-keyboard-response","217","365017","0.0-6.0-0.70","FL","wuvcv75zvq","1280","720","de","VA04RD11","null","","","","","","","","learning/Slide71.JPG","null","","","","",""
"","html-keyboard-response","218","366170","0.0-6.0-1.70","FL","wuvcv75zvq","1280","720","de","VA04RD11","null","","","","learningBlock1","","","","That was a wug.","null","","","","",""
"","html-keyboard-response","219","367171","0.0-6.0-2.70","FL","wuvcv75zvq","1280","720","de","VA04RD11","null","","","","learningBlock1","","","","<div style=""font-size:60px;""> </div>","null","FL","learning/Slide71.JPG","That was a wug.","",""
"","image-keyboard-response","220","367380","0.0-6.0-0.71","FL","wuvcv75zvq","1280","720","de","VA04RD11","null","","","","","","","","learning/Slide72.JPG","null","","","","",""
"","html-keyboard-response","221","368532","0.0-6.0-1.71","FL","wuvcv75zvq","1280","720","de","VA04RD11","null","","","","learningBlock1","","","","That was a bim.","null","","","","",""
"","html-keyboard-response","222","369583","0.0-6.0-2.71","FL","wuvcv75zvq","1280","720","de","VA04RD11","null","","","","learningBlock1","","","","<div style=""font-size:60px;""> </div>","null","FL","learning/Slide72.JPG","That was a bim.","",""
"","image-keyboard-response","223","369760","0.0-6.0-0.72","FL","wuvcv75zvq","1280","720","de","VA04RD11","null","","","","","","","","learning/Slide73.JPG","null","","","","",""
"","html-keyboard-response","224","370913","0.0-6.0-1.72","FL","wuvcv75zvq","1280","720","de","VA04RD11","null","","","","learningBlock1","","","","That was a wug.","null","","","","",""
"","html-keyboard-response","225","371915","0.0-6.0-2.72","FL","wuvcv75zvq","1280","720","de","VA04RD11","null","","","","learningBlock1","","","","<div style=""font-size:60px;""> </div>","null","FL","learning/Slide73.JPG","That was a wug.","",""
"","image-keyboard-response","226","372092","0.0-6.0-0.73","FL","wuvcv75zvq","1280","720","de","VA04RD11","null","","","","","","","","learning/Slide74.JPG","null","","","","",""
"","html-keyboard-response","227","373246","0.0-6.0-1.73","FL","wuvcv75zvq","1280","720","de","VA04RD11","null","","","","learningBlock1","","","","That was a dep.","null","","","","",""
"","html-keyboard-response","228","374247","0.0-6.0-2.73","FL","wuvcv75zvq","1280","720","de","VA04RD11","null","","","","learningBlock1","","","","<div style=""font-size:60px;""> </div>","null","FL","learning/Slide74.JPG","That was a dep.","",""
"","image-keyboard-response","229","374424","0.0-6.0-0.74","FL","wuvcv75zvq","1280","720","de","VA04RD11","null","","","","","","","","learning/Slide75.JPG","null","","","","",""
"","html-keyboard-response","230","375577","0.0-6.0-1.74","FL","wuvcv75zvq","1280","720","de","VA04RD11","null","","","","learningBlock1","","","","That was a tob.","null","","","","",""
"","html-keyboard-response","231","376581","0.0-6.0-2.74","FL","wuvcv75zvq","1280","720","de","VA04RD11","null","","","","learningBlock1","","","","<div style=""font-size:60px;""> </div>","null","FL","learning/Slide75.JPG","That was a tob.","",""
"","image-keyboard-response","232","376758","0.0-6.0-0.75","FL","wuvcv75zvq","1280","720","de","VA04RD11","null","","","","","","","","learning/Slide76.JPG","null","","","","",""
"","html-keyboard-response","233","377913","0.0-6.0-1.75","FL","wuvcv75zvq","1280","720","de","VA04RD11","null","","","","learningBlock1","","","","That was a bim.","null","","","","",""
"","html-keyboard-response","234","378917","0.0-6.0-2.75","FL","wuvcv75zvq","1280","720","de","VA04RD11","null","","","","learningBlock1","","","","<div style=""font-size:60px;""> </div>","null","FL","learning/Slide76.JPG","That was a bim.","",""
"","image-keyboard-response","235","379203","0.0-6.0-0.76","FL","wuvcv75zvq","1280","720","de","VA04RD11","null","","","","","","","","learning/Slide77.JPG","null","","","","",""
"","html-keyboard-response","236","380355","0.0-6.0-1.76","FL","wuvcv75zvq","1280","720","de","VA04RD11","null","","","","learningBlock1","","","","That was a tob.","null","","","","",""
"","html-keyboard-response","237","381357","0.0-6.0-2.76","FL","wuvcv75zvq","1280","720","de","VA04RD11","null","","","","learningBlock1","","","","<div style=""font-size:60px;""> </div>","null","FL","learning/Slide77.JPG","That was a tob.","",""
"","image-keyboard-response","238","381532","0.0-6.0-0.77","FL","wuvcv75zvq","1280","720","de","VA04RD11","null","","","","","","","","learning/Slide78.JPG","null","","","","",""
"","html-keyboard-response","239","382685","0.0-6.0-1.77","FL","wuvcv75zvq","1280","720","de","VA04RD11","null","","","","learningBlock1","","","","That was a wug.","null","","","","",""
"","html-keyboard-response","240","383686","0.0-6.0-2.77","FL","wuvcv75zvq","1280","720","de","VA04RD11","null","","","","learningBlock1","","","","<div style=""font-size:60px;""> </div>","null","FL","learning/Slide78.JPG","That was a wug.","",""
"","image-keyboard-response","241","383864","0.0-6.0-0.78","FL","wuvcv75zvq","1280","720","de","VA04RD11","null","","","","","","","","learning/Slide79.JPG","null","","","","",""
"","html-keyboard-response","242","385017","0.0-6.0-1.78","FL","wuvcv75zvq","1280","720","de","VA04RD11","null","","","","learningBlock1","","","","That was a bim.","null","","","","",""
"","html-keyboard-response","243","386019","0.0-6.0-2.78","FL","wuvcv75zvq","1280","720","de","VA04RD11","null","","","","learningBlock1","","","","<div style=""font-size:60px;""> </div>","null","FL","learning/Slide79.JPG","That was a bim.","",""
"","image-keyboard-response","244","386195","0.0-6.0-0.79","FL","wuvcv75zvq","1280","720","de","VA04RD11","null","","","","","","","","learning/Slide80.JPG","null","","","","",""
"","html-keyboard-response","245","387348","0.0-6.0-1.79","FL","wuvcv75zvq","1280","720","de","VA04RD11","null","","","","learningBlock1","","","","That was a tob.","null","","","","",""
"","html-keyboard-response","246","388350","0.0-6.0-2.79","FL","wuvcv75zvq","1280","720","de","VA04RD11","null","","","","learningBlock1","","","","<div style=""font-size:60px;""> </div>","null","FL","learning/Slide80.JPG","That was a tob.","",""
"","instructions","247","396178","0.0-7.0","FL","wuvcv75zvq","1280","720","de","VA04RD11","NA","","","[{""page_index"":0,""viewing_time"":7828}]","instructions","","","","","","","","","",""
"","image-keyboard-response","248","396356","0.0-8.0-0.0","FL","wuvcv75zvq","1280","720","de","VA04RD11","null","","","","","","","","learning/Slide81.JPG","null","","","","",""
"","html-keyboard-response","249","397508","0.0-8.0-1.0","FL","wuvcv75zvq","1280","720","de","VA04RD11","null","","","","learningBlock2","","","","That was a wug.","null","","","","",""
"","html-keyboard-response","250","398509","0.0-8.0-2.0","FL","wuvcv75zvq","1280","720","de","VA04RD11","null","","","","learningBlock2","","","","<div style=""font-size:60px;""> </div>","null","FL","learning/Slide81.JPG","That was a wug.","",""
"","image-keyboard-response","251","398687","0.0-8.0-0.1","FL","wuvcv75zvq","1280","720","de","VA04RD11","null","","","","","","","","learning/Slide82.JPG","null","","","","",""
"","html-keyboard-response","252","399841","0.0-8.0-1.1","FL","wuvcv75zvq","1280","720","de","VA04RD11","null","","","","learningBlock2","","","","That was a bim.","null","","","","",""
"","html-keyboard-response","253","400843","0.0-8.0-2.1","FL","wuvcv75zvq","1280","720","de","VA04RD11","null","","","","learningBlock2","","","","<div style=""font-size:60px;""> </div>","null","FL","learning/Slide82.JPG","That was a bim.","",""
"","image-keyboard-response","254","401020","0.0-8.0-0.2","FL","wuvcv75zvq","1280","720","de","VA04RD11","null","","","","","","","","learning/Slide83.JPG","null","","","","",""
"","html-keyboard-response","255","402174","0.0-8.0-1.2","FL","wuvcv75zvq","1280","720","de","VA04RD11","null","","","","learningBlock2","","","","That was a wug.","null","","","","",""
"","html-keyboard-response","256","403176","0.0-8.0-2.2","FL","wuvcv75zvq","1280","720","de","VA04RD11","null","","","","learningBlock2","","","","<div style=""font-size:60px;""> </div>","null","FL","learning/Slide83.JPG","That was a wug.","",""
"","image-keyboard-response","257","403353","0.0-8.0-0.3","FL","wuvcv75zvq","1280","720","de","VA04RD11","null","","","","","","","","learning/Slide84.JPG","null","","","","",""
"","html-keyboard-response","258","404623","0.0-8.0-1.3","FL","wuvcv75zvq","1280","720","de","VA04RD11","null","","","","learningBlock2","","","","That was a dep.","null","","","","",""
"","html-keyboard-response","259","405626","0.0-8.0-2.3","FL","wuvcv75zvq","1280","720","de","VA04RD11","null","","","","learningBlock2","","","","<div style=""font-size:60px;""> </div>","null","FL","learning/Slide84.JPG","That was a dep.","",""
"","image-keyboard-response","260","405803","0.0-8.0-0.4","FL","wuvcv75zvq","1280","720","de","VA04RD11","null","","","","","","","","learning/Slide85.JPG","null","","","","",""
"","html-keyboard-response","261","406956","0.0-8.0-1.4","FL","wuvcv75zvq","1280","720","de","VA04RD11","null","","","","learningBlock2","","","","That was a bim.","null","","","","",""
"","html-keyboard-response","262","407957","0.0-8.0-2.4","FL","wuvcv75zvq","1280","720","de","VA04RD11","null","","","","learningBlock2","","","","<div style=""font-size:60px;""> </div>","null","FL","learning/Slide85.JPG","That was a bim.","",""
"","image-keyboard-response","263","408134","0.0-8.0-0.5","FL","wuvcv75zvq","1280","720","de","VA04RD11","null","","","","","","","","learning/Slide86.JPG","null","","","","",""
"","html-keyboard-response","264","409287","0.0-8.0-1.5","FL","wuvcv75zvq","1280","720","de","VA04RD11","null","","","","learningBlock2","","","","That was a tob.","null","","","","",""
"","html-keyboard-response","265","410290","0.0-8.0-2.5","FL","wuvcv75zvq","1280","720","de","VA04RD11","null","","","","learningBlock2","","","","<div style=""font-size:60px;""> </div>","null","FL","learning/Slide86.JPG","That was a tob.","",""
"","image-keyboard-response","266","410467","0.0-8.0-0.6","FL","wuvcv75zvq","1280","720","de","VA04RD11","null","","","","","","","","learning/Slide87.JPG","null","","","","",""
"","html-keyboard-response","267","411619","0.0-8.0-1.6","FL","wuvcv75zvq","1280","720","de","VA04RD11","null","","","","learningBlock2","","","","That was a wug.","null","","","","",""
"","html-keyboard-response","268","412621","0.0-8.0-2.6","FL","wuvcv75zvq","1280","720","de","VA04RD11","null","","","","learningBlock2","","","","<div style=""font-size:60px;""> </div>","null","FL","learning/Slide87.JPG","That was a wug.","",""
"","image-keyboard-response","269","412798","0.0-8.0-0.7","FL","wuvcv75zvq","1280","720","de","VA04RD11","null","","","","","","","","learning/Slide88.JPG","null","","","","",""
"","html-keyboard-response","270","413950","0.0-8.0-1.7","FL","wuvcv75zvq","1280","720","de","VA04RD11","null","","","","learningBlock2","","","","That was a tob.","null","","","","",""
"","html-keyboard-response","271","414951","0.0-8.0-2.7","FL","wuvcv75zvq","1280","720","de","VA04RD11","null","","","","learningBlock2","","","","<div style=""font-size:60px;""> </div>","null","FL","learning/Slide88.JPG","That was a tob.","",""
"","image-keyboard-response","272","415227","0.0-8.0-0.8","FL","wuvcv75zvq","1280","720","de","VA04RD11","null","","","","","","","","learning/Slide89.JPG","null","","","","",""
"","html-keyboard-response","273","416380","0.0-8.0-1.8","FL","wuvcv75zvq","1280","720","de","VA04RD11","null","","","","learningBlock2","","","","That was a bim.","null","","","","",""
"","html-keyboard-response","274","417381","0.0-8.0-2.8","FL","wuvcv75zvq","1280","720","de","VA04RD11","null","","","","learningBlock2","","","","<div style=""font-size:60px;""> </div>","null","FL","learning/Slide89.JPG","That was a bim.","",""
"","image-keyboard-response","275","417559","0.0-8.0-0.9","FL","wuvcv75zvq","1280","720","de","VA04RD11","null","","","","","","","","learning/Slide90.JPG","null","","","","",""
"","html-keyboard-response","276","418712","0.0-8.0-1.9","FL","wuvcv75zvq","1280","720","de","VA04RD11","null","","","","learningBlock2","","","","That was a dep.","null","","","","",""
"","html-keyboard-response","277","419712","0.0-8.0-2.9","FL","wuvcv75zvq","1280","720","de","VA04RD11","null","","","","learningBlock2","","","","<div style=""font-size:60px;""> </div>","null","FL","learning/Slide90.JPG","That was a dep.","",""
"","image-keyboard-response","278","419889","0.0-8.0-0.10","FL","wuvcv75zvq","1280","720","de","VA04RD11","null","","","","","","","","learning/Slide91.JPG","null","","","","",""
"","html-keyboard-response","279","421041","0.0-8.0-1.10","FL","wuvcv75zvq","1280","720","de","VA04RD11","null","","","","learningBlock2","","","","That was a wug.","null","","","","",""
"","html-keyboard-response","280","422041","0.0-8.0-2.10","FL","wuvcv75zvq","1280","720","de","VA04RD11","null","","","","learningBlock2","","","","<div style=""font-size:60px;""> </div>","null","FL","learning/Slide91.JPG","That was a wug.","",""
"","image-keyboard-response","281","422218","0.0-8.0-0.11","FL","wuvcv75zvq","1280","720","de","VA04RD11","null","","","","","","","","learning/Slide92.JPG","null","","","","",""
"","html-keyboard-response","282","423370","0.0-8.0-1.11","FL","wuvcv75zvq","1280","720","de","VA04RD11","null","","","","learningBlock2","","","","That was a tob.","null","","","","",""
"","html-keyboard-response","283","424371","0.0-8.0-2.11","FL","wuvcv75zvq","1280","720","de","VA04RD11","null","","","","learningBlock2","","","","<div style=""font-size:60px;""> </div>","null","FL","learning/Slide92.JPG","That was a tob.","",""
"","image-keyboard-response","284","424549","0.0-8.0-0.12","FL","wuvcv75zvq","1280","720","de","VA04RD11","null","","","","","","","","learning/Slide93.JPG","null","","","","",""
"","html-keyboard-response","285","425744","0.0-8.0-1.12","FL","wuvcv75zvq","1280","720","de","VA04RD11","null","","","","learningBlock2","","","","That was a bim.","null","","","","",""
"","html-keyboard-response","286","426832","0.0-8.0-2.12","FL","wuvcv75zvq","1280","720","de","VA04RD11","null","","","","learningBlock2","","","","<div style=""font-size:60px;""> </div>","null","FL","learning/Slide93.JPG","That was a bim.","",""
"","image-keyboard-response","287","427010","0.0-8.0-0.13","FL","wuvcv75zvq","1280","720","de","VA04RD11","null","","","","","","","","learning/Slide94.JPG","null","","","","",""
"","html-keyboard-response","288","428162","0.0-8.0-1.13","FL","wuvcv75zvq","1280","720","de","VA04RD11","null","","","","learningBlock2","","","","That was a tob.","null","","","","",""
"","html-keyboard-response","289","429164","0.0-8.0-2.13","FL","wuvcv75zvq","1280","720","de","VA04RD11","null","","","","learningBlock2","","","","<div style=""font-size:60px;""> </div>","null","FL","learning/Slide94.JPG","That was a tob.","",""
"","image-keyboard-response","290","429341","0.0-8.0-0.14","FL","wuvcv75zvq","1280","720","de","VA04RD11","null","","","","","","","","learning/Slide95.JPG","null","","","","",""
"","html-keyboard-response","291","430495","0.0-8.0-1.14","FL","wuvcv75zvq","1280","720","de","VA04RD11","null","","","","learningBlock2","","","","That was a wug.","null","","","","",""
"","html-keyboard-response","292","431496","0.0-8.0-2.14","FL","wuvcv75zvq","1280","720","de","VA04RD11","null","","","","learningBlock2","","","","<div style=""font-size:60px;""> </div>","null","FL","learning/Slide95.JPG","That was a wug.","",""
"","image-keyboard-response","293","431672","0.0-8.0-0.15","FL","wuvcv75zvq","1280","720","de","VA04RD11","null","","","","","","","","learning/Slide96.JPG","null","","","","",""
"","html-keyboard-response","294","432824","0.0-8.0-1.15","FL","wuvcv75zvq","1280","720","de","VA04RD11","null","","","","learningBlock2","","","","That was a tob.","null","","","","",""
"","html-keyboard-response","295","433825","0.0-8.0-2.15","FL","wuvcv75zvq","1280","720","de","VA04RD11","null","","","","learningBlock2","","","","<div style=""font-size:60px;""> </div>","null","FL","learning/Slide96.JPG","That was a tob.","",""
"","image-keyboard-response","296","434003","0.0-8.0-0.16","FL","wuvcv75zvq","1280","720","de","VA04RD11","null","","","","","","","","learning/Slide97.JPG","null","","","","",""
"","html-keyboard-response","297","435178","0.0-8.0-1.16","FL","wuvcv75zvq","1280","720","de","VA04RD11","null","","","","learningBlock2","","","","That was a dep.","null","","","","",""
"","html-keyboard-response","298","436252","0.0-8.0-2.16","FL","wuvcv75zvq","1280","720","de","VA04RD11","null","","","","learningBlock2","","","","<div style=""font-size:60px;""> </div>","null","FL","learning/Slide97.JPG","That was a dep.","",""
"","image-keyboard-response","299","436429","0.0-8.0-0.17","FL","wuvcv75zvq","1280","720","de","VA04RD11","null","","","","","","","","learning/Slide98.JPG","null","","","","",""
"","html-keyboard-response","300","437581","0.0-8.0-1.17","FL","wuvcv75zvq","1280","720","de","VA04RD11","null","","","","learningBlock2","","","","That was a bim.","null","","","","",""
"","html-keyboard-response","301","438581","0.0-8.0-2.17","FL","wuvcv75zvq","1280","720","de","VA04RD11","null","","","","learningBlock2","","","","<div style=""font-size:60px;""> </div>","null","FL","learning/Slide98.JPG","That was a bim.","",""
"","image-keyboard-response","302","438758","0.0-8.0-0.18","FL","wuvcv75zvq","1280","720","de","VA04RD11","null","","","","","","","","learning/Slide99.JPG","null","","","","",""
"","html-keyboard-response","303","439912","0.0-8.0-1.18","FL","wuvcv75zvq","1280","720","de","VA04RD11","null","","","","learningBlock2","","","","That was a dep.","null","","","","",""
"","html-keyboard-response","304","440914","0.0-8.0-2.18","FL","wuvcv75zvq","1280","720","de","VA04RD11","null","","","","learningBlock2","","","","<div style=""font-size:60px;""> </div>","null","FL","learning/Slide99.JPG","That was a dep.","",""
"","image-keyboard-response","305","441091","0.0-8.0-0.19","FL","wuvcv75zvq","1280","720","de","VA04RD11","null","","","","","","","","learning/Slide100.JPG","null","","","","",""
"","html-keyboard-response","306","442244","0.0-8.0-1.19","FL","wuvcv75zvq","1280","720","de","VA04RD11","null","","","","learningBlock2","","","","That was a bim.","null","","","","",""
"","html-keyboard-response","307","443247","0.0-8.0-2.19","FL","wuvcv75zvq","1280","720","de","VA04RD11","null","","","","learningBlock2","","","","<div style=""font-size:60px;""> </div>","null","FL","learning/Slide100.JPG","That was a bim.","",""
"","image-keyboard-response","308","443423","0.0-8.0-0.20","FL","wuvcv75zvq","1280","720","de","VA04RD11","null","","","","","","","","learning/Slide101.JPG","null","","","","",""
"","html-keyboard-response","309","444575","0.0-8.0-1.20","FL","wuvcv75zvq","1280","720","de","VA04RD11","null","","","","learningBlock2","","","","That was a tob.","null","","","","",""
"","html-keyboard-response","310","445577","0.0-8.0-2.20","FL","wuvcv75zvq","1280","720","de","VA04RD11","null","","","","learningBlock2","","","","<div style=""font-size:60px;""> </div>","null","FL","learning/Slide101.JPG","That was a tob.","",""
"","image-keyboard-response","311","445776","0.0-8.0-0.21","FL","wuvcv75zvq","1280","720","de","VA04RD11","null","","","","","","","","learning/Slide102.JPG","null","","","","",""
"","html-keyboard-response","312","446929","0.0-8.0-1.21","FL","wuvcv75zvq","1280","720","de","VA04RD11","null","","","","learningBlock2","","","","That was a bim.","null","","","","",""
"","html-keyboard-response","313","447931","0.0-8.0-2.21","FL","wuvcv75zvq","1280","720","de","VA04RD11","null","","","","learningBlock2","","","","<div style=""font-size:60px;""> </div>","null","FL","learning/Slide102.JPG","That was a bim.","",""
"","image-keyboard-response","314","448108","0.0-8.0-0.22","FL","wuvcv75zvq","1280","720","de","VA04RD11","null","","","","","","","","learning/Slide103.JPG","null","","","","",""
"","html-keyboard-response","315","449262","0.0-8.0-1.22","FL","wuvcv75zvq","1280","720","de","VA04RD11","null","","","","learningBlock2","","","","That was a dep.","null","","","","",""
"","html-keyboard-response","316","450264","0.0-8.0-2.22","FL","wuvcv75zvq","1280","720","de","VA04RD11","null","","","","learningBlock2","","","","<div style=""font-size:60px;""> </div>","null","FL","learning/Slide103.JPG","That was a dep.","",""
"","image-keyboard-response","317","450441","0.0-8.0-0.23","FL","wuvcv75zvq","1280","720","de","VA04RD11","null","","","","","","","","learning/Slide104.JPG","null","","","","",""
"","html-keyboard-response","318","451594","0.0-8.0-1.23","FL","wuvcv75zvq","1280","720","de","VA04RD11","null","","","","learningBlock2","","","","That was a tob.","null","","","","",""
"","html-keyboard-response","319","452597","0.0-8.0-2.23","FL","wuvcv75zvq","1280","720","de","VA04RD11","null","","","","learningBlock2","","","","<div style=""font-size:60px;""> </div>","null","FL","learning/Slide104.JPG","That was a tob.","",""
"","image-keyboard-response","320","452774","0.0-8.0-0.24","FL","wuvcv75zvq","1280","720","de","VA04RD11","null","","","","","","","","learning/Slide105.JPG","null","","","","",""
"","html-keyboard-response","321","453926","0.0-8.0-1.24","FL","wuvcv75zvq","1280","720","de","VA04RD11","null","","","","learningBlock2","","","","That was a dep.","null","","","","",""
"","html-keyboard-response","322","454929","0.0-8.0-2.24","FL","wuvcv75zvq","1280","720","de","VA04RD11","null","","","","learningBlock2","","","","<div style=""font-size:60px;""> </div>","null","FL","learning/Slide105.JPG","That was a dep.","",""
"","image-keyboard-response","323","455106","0.0-8.0-0.25","FL","wuvcv75zvq","1280","720","de","VA04RD11","null","","","","","","","","learning/Slide106.JPG","null","","","","",""
"","html-keyboard-response","324","456263","0.0-8.0-1.25","FL","wuvcv75zvq","1280","720","de","VA04RD11","null","","","","learningBlock2","","","","That was a wug.","null","","","","",""
"","html-keyboard-response","325","457264","0.0-8.0-2.25","FL","wuvcv75zvq","1280","720","de","VA04RD11","null","","","","learningBlock2","","","","<div style=""font-size:60px;""> </div>","null","FL","learning/Slide106.JPG","That was a wug.","",""
"","image-keyboard-response","326","457440","0.0-8.0-0.26","FL","wuvcv75zvq","1280","720","de","VA04RD11","null","","","","","","","","learning/Slide107.JPG","null","","","","",""
"","html-keyboard-response","327","458594","0.0-8.0-1.26","FL","wuvcv75zvq","1280","720","de","VA04RD11","null","","","","learningBlock2","","","","That was a bim.","null","","","","",""
"","html-keyboard-response","328","459596","0.0-8.0-2.26","FL","wuvcv75zvq","1280","720","de","VA04RD11","null","","","","learningBlock2","","","","<div style=""font-size:60px;""> </div>","null","FL","learning/Slide107.JPG","That was a bim.","",""
"","image-keyboard-response","329","459773","0.0-8.0-0.27","FL","wuvcv75zvq","1280","720","de","VA04RD11","null","","","","","","","","learning/Slide108.JPG","null","","","","",""
"","html-keyboard-response","330","460927","0.0-8.0-1.27","FL","wuvcv75zvq","1280","720","de","VA04RD11","null","","","","learningBlock2","","","","That was a dep.","null","","","","",""
"","html-keyboard-response","331","461930","0.0-8.0-2.27","FL","wuvcv75zvq","1280","720","de","VA04RD11","null","","","","learningBlock2","","","","<div style=""font-size:60px;""> </div>","null","FL","learning/Slide108.JPG","That was a dep.","",""
"","image-keyboard-response","332","462108","0.0-8.0-0.28","FL","wuvcv75zvq","1280","720","de","VA04RD11","null","","","","","","","","learning/Slide109.JPG","null","","","","",""
"","html-keyboard-response","333","463260","0.0-8.0-1.28","FL","wuvcv75zvq","1280","720","de","VA04RD11","null","","","","learningBlock2","","","","That was a wug.","null","","","","",""
"","html-keyboard-response","334","464264","0.0-8.0-2.28","FL","wuvcv75zvq","1280","720","de","VA04RD11","null","","","","learningBlock2","","","","<div style=""font-size:60px;""> </div>","null","FL","learning/Slide109.JPG","That was a wug.","",""
"","image-keyboard-response","335","464440","0.0-8.0-0.29","FL","wuvcv75zvq","1280","720","de","VA04RD11","null","","","","","","","","learning/Slide110.JPG","null","","","","",""
"","html-keyboard-response","336","465592","0.0-8.0-1.29","FL","wuvcv75zvq","1280","720","de","VA04RD11","null","","","","learningBlock2","","","","That was a bim.","null","","","","",""
"","html-keyboard-response","337","466592","0.0-8.0-2.29","FL","wuvcv75zvq","1280","720","de","VA04RD11","null","","","","learningBlock2","","","","<div style=""font-size:60px;""> </div>","null","FL","learning/Slide110.JPG","That was a bim.","",""
"","image-keyboard-response","338","466821","0.0-8.0-0.30","FL","wuvcv75zvq","1280","720","de","VA04RD11","null","","","","","","","","learning/Slide111.JPG","null","","","","",""
"","html-keyboard-response","339","467976","0.0-8.0-1.30","FL","wuvcv75zvq","1280","720","de","VA04RD11","null","","","","learningBlock2","","","","That was a tob.","null","","","","",""
"","html-keyboard-response","340","468991","0.0-8.0-2.30","FL","wuvcv75zvq","1280","720","de","VA04RD11","null","","","","learningBlock2","","","","<div style=""font-size:60px;""> </div>","null","FL","learning/Slide111.JPG","That was a tob.","",""
"","image-keyboard-response","341","469167","0.0-8.0-0.31","FL","wuvcv75zvq","1280","720","de","VA04RD11","null","","","","","","","","learning/Slide112.JPG","null","","","","",""
"","html-keyboard-response","342","470319","0.0-8.0-1.31","FL","wuvcv75zvq","1280","720","de","VA04RD11","null","","","","learningBlock2","","","","That was a wug.","null","","","","",""
"","html-keyboard-response","343","471322","0.0-8.0-2.31","FL","wuvcv75zvq","1280","720","de","VA04RD11","null","","","","learningBlock2","","","","<div style=""font-size:60px;""> </div>","null","FL","learning/Slide112.JPG","That was a wug.","",""
"","image-keyboard-response","344","471497","0.0-8.0-0.32","FL","wuvcv75zvq","1280","720","de","VA04RD11","null","","","","","","","","learning/Slide113.JPG","null","","","","",""
"","html-keyboard-response","345","472649","0.0-8.0-1.32","FL","wuvcv75zvq","1280","720","de","VA04RD11","null","","","","learningBlock2","","","","That was a tob.","null","","","","",""
"","html-keyboard-response","346","473649","0.0-8.0-2.32","FL","wuvcv75zvq","1280","720","de","VA04RD11","null","","","","learningBlock2","","","","<div style=""font-size:60px;""> </div>","null","FL","learning/Slide113.JPG","That was a tob.","",""
"","image-keyboard-response","347","473826","0.0-8.0-0.33","FL","wuvcv75zvq","1280","720","de","VA04RD11","null","","","","","","","","learning/Slide114.JPG","null","","","","",""
"","html-keyboard-response","348","474979","0.0-8.0-1.33","FL","wuvcv75zvq","1280","720","de","VA04RD11","null","","","","learningBlock2","","","","That was a wug.","null","","","","",""
"","html-keyboard-response","349","475982","0.0-8.0-2.33","FL","wuvcv75zvq","1280","720","de","VA04RD11","null","","","","learningBlock2","","","","<div style=""font-size:60px;""> </div>","null","FL","learning/Slide114.JPG","That was a wug.","",""
"","image-keyboard-response","350","476158","0.0-8.0-0.34","FL","wuvcv75zvq","1280","720","de","VA04RD11","null","","","","","","","","learning/Slide115.JPG","null","","","","",""
"","html-keyboard-response","351","477371","0.0-8.0-1.34","FL","wuvcv75zvq","1280","720","de","VA04RD11","null","","","","learningBlock2","","","","That was a bim.","null","","","","",""
"","html-keyboard-response","352","478373","0.0-8.0-2.34","FL","wuvcv75zvq","1280","720","de","VA04RD11","null","","","","learningBlock2","","","","<div style=""font-size:60px;""> </div>","null","FL","learning/Slide115.JPG","That was a bim.","",""
"","image-keyboard-response","353","478558","0.0-8.0-0.35","FL","wuvcv75zvq","1280","720","de","VA04RD11","null","","","","","","","","learning/Slide116.JPG","null","","","","",""
"","html-keyboard-response","354","479712","0.0-8.0-1.35","FL","wuvcv75zvq","1280","720","de","VA04RD11","null","","","","learningBlock2","","","","That was a dep.","null","","","","",""
"","html-keyboard-response","355","480714","0.0-8.0-2.35","FL","wuvcv75zvq","1280","720","de","VA04RD11","null","","","","learningBlock2","","","","<div style=""font-size:60px;""> </div>","null","FL","learning/Slide116.JPG","That was a dep.","",""
"","image-keyboard-response","356","480891","0.0-8.0-0.36","FL","wuvcv75zvq","1280","720","de","VA04RD11","null","","","","","","","","learning/Slide117.JPG","null","","","","",""
"","html-keyboard-response","357","482043","0.0-8.0-1.36","FL","wuvcv75zvq","1280","720","de","VA04RD11","null","","","","learningBlock2","","","","That was a tob.","null","","","","",""
"","html-keyboard-response","358","483044","0.0-8.0-2.36","FL","wuvcv75zvq","1280","720","de","VA04RD11","null","","","","learningBlock2","","","","<div style=""font-size:60px;""> </div>","null","FL","learning/Slide117.JPG","That was a tob.","",""
"","image-keyboard-response","359","483221","0.0-8.0-0.37","FL","wuvcv75zvq","1280","720","de","VA04RD11","null","","","","","","","","learning/Slide118.JPG","null","","","","",""
"","html-keyboard-response","360","484373","0.0-8.0-1.37","FL","wuvcv75zvq","1280","720","de","VA04RD11","null","","","","learningBlock2","","","","That was a dep.","null","","","","",""
"","html-keyboard-response","361","485374","0.0-8.0-2.37","FL","wuvcv75zvq","1280","720","de","VA04RD11","null","","","","learningBlock2","","","","<div style=""font-size:60px;""> </div>","null","FL","learning/Slide118.JPG","That was a dep.","",""
"","image-keyboard-response","362","485549","0.0-8.0-0.38","FL","wuvcv75zvq","1280","720","de","VA04RD11","null","","","","","","","","learning/Slide119.JPG","null","","","","",""
"","html-keyboard-response","363","486703","0.0-8.0-1.38","FL","wuvcv75zvq","1280","720","de","VA04RD11","null","","","","learningBlock2","","","","That was a wug.","null","","","","",""
"","html-keyboard-response","364","487704","0.0-8.0-2.38","FL","wuvcv75zvq","1280","720","de","VA04RD11","null","","","","learningBlock2","","","","<div style=""font-size:60px;""> </div>","null","FL","learning/Slide119.JPG","That was a wug.","",""
"","image-keyboard-response","365","487881","0.0-8.0-0.39","FL","wuvcv75zvq","1280","720","de","VA04RD11","null","","","","","","","","learning/Slide120.JPG","null","","","","",""
"","html-keyboard-response","366","489102","0.0-8.0-1.39","FL","wuvcv75zvq","1280","720","de","VA04RD11","null","","","","learningBlock2","","","","That was a dep.","null","","","","",""
"","html-keyboard-response","367","490173","0.0-8.0-2.39","FL","wuvcv75zvq","1280","720","de","VA04RD11","null","","","","learningBlock2","","","","<div style=""font-size:60px;""> </div>","null","FL","learning/Slide120.JPG","That was a dep.","",""
"","image-keyboard-response","368","490350","0.0-8.0-0.40","FL","wuvcv75zvq","1280","720","de","VA04RD11","null","","","","","","","","learning/Slide121.JPG","null","","","","",""
"","html-keyboard-response","369","491502","0.0-8.0-1.40","FL","wuvcv75zvq","1280","720","de","VA04RD11","null","","","","learningBlock2","","","","That was a bim.","null","","","","",""
"","html-keyboard-response","370","492503","0.0-8.0-2.40","FL","wuvcv75zvq","1280","720","de","VA04RD11","null","","","","learningBlock2","","","","<div style=""font-size:60px;""> </div>","null","FL","learning/Slide121.JPG","That was a bim.","",""
"","image-keyboard-response","371","492681","0.0-8.0-0.41","FL","wuvcv75zvq","1280","720","de","VA04RD11","null","","","","","","","","learning/Slide122.JPG","null","","","","",""
"","html-keyboard-response","372","493833","0.0-8.0-1.41","FL","wuvcv75zvq","1280","720","de","VA04RD11","null","","","","learningBlock2","","","","That was a wug.","null","","","","",""
"","html-keyboard-response","373","494834","0.0-8.0-2.41","FL","wuvcv75zvq","1280","720","de","VA04RD11","null","","","","learningBlock2","","","","<div style=""font-size:60px;""> </div>","null","FL","learning/Slide122.JPG","That was a wug.","",""
"","image-keyboard-response","374","495011","0.0-8.0-0.42","FL","wuvcv75zvq","1280","720","de","VA04RD11","null","","","","","","","","learning/Slide123.JPG","null","","","","",""
"","html-keyboard-response","375","496166","0.0-8.0-1.42","FL","wuvcv75zvq","1280","720","de","VA04RD11","null","","","","learningBlock2","","","","That was a bim.","null","","","","",""
"","html-keyboard-response","376","497167","0.0-8.0-2.42","FL","wuvcv75zvq","1280","720","de","VA04RD11","null","","","","learningBlock2","","","","<div style=""font-size:60px;""> </div>","null","FL","learning/Slide123.JPG","That was a bim.","",""
"","image-keyboard-response","377","497343","0.0-8.0-0.43","FL","wuvcv75zvq","1280","720","de","VA04RD11","null","","","","","","","","learning/Slide124.JPG","null","","","","",""
"","html-keyboard-response","378","498498","0.0-8.0-1.43","FL","wuvcv75zvq","1280","720","de","VA04RD11","null","","","","learningBlock2","","","","That was a tob.","null","","","","",""
"","html-keyboard-response","379","499499","0.0-8.0-2.43","FL","wuvcv75zvq","1280","720","de","VA04RD11","null","","","","learningBlock2","","","","<div style=""font-size:60px;""> </div>","null","FL","learning/Slide124.JPG","That was a tob.","",""
"","image-keyboard-response","380","499738","0.0-8.0-0.44","FL","wuvcv75zvq","1280","720","de","VA04RD11","null","","","","","","","","learning/Slide125.JPG","null","","","","",""
"","html-keyboard-response","381","500894","0.0-8.0-1.44","FL","wuvcv75zvq","1280","720","de","VA04RD11","null","","","","learningBlock2","","","","That was a bim.","null","","","","",""
"","html-keyboard-response","382","501895","0.0-8.0-2.44","FL","wuvcv75zvq","1280","720","de","VA04RD11","null","","","","learningBlock2","","","","<div style=""font-size:60px;""> </div>","null","FL","learning/Slide125.JPG","That was a bim.","",""
"","image-keyboard-response","383","502073","0.0-8.0-0.45","FL","wuvcv75zvq","1280","720","de","VA04RD11","null","","","","","","","","learning/Slide126.JPG","null","","","","",""
"","html-keyboard-response","384","503228","0.0-8.0-1.45","FL","wuvcv75zvq","1280","720","de","VA04RD11","null","","","","learningBlock2","","","","That was a tob.","null","","","","",""
"","html-keyboard-response","385","504230","0.0-8.0-2.45","FL","wuvcv75zvq","1280","720","de","VA04RD11","null","","","","learningBlock2","","","","<div style=""font-size:60px;""> </div>","null","FL","learning/Slide126.JPG","That was a tob.","",""
"","image-keyboard-response","386","504407","0.0-8.0-0.46","FL","wuvcv75zvq","1280","720","de","VA04RD11","null","","","","","","","","learning/Slide127.JPG","null","","","","",""
"","html-keyboard-response","387","505562","0.0-8.0-1.46","FL","wuvcv75zvq","1280","720","de","VA04RD11","null","","","","learningBlock2","","","","That was a dep.","null","","","","",""
"","html-keyboard-response","388","506564","0.0-8.0-2.46","FL","wuvcv75zvq","1280","720","de","VA04RD11","null","","","","learningBlock2","","","","<div style=""font-size:60px;""> </div>","null","FL","learning/Slide127.JPG","That was a dep.","",""
"","image-keyboard-response","389","506740","0.0-8.0-0.47","FL","wuvcv75zvq","1280","720","de","VA04RD11","null","","","","","","","","learning/Slide128.JPG","null","","","","",""
"","html-keyboard-response","390","507894","0.0-8.0-1.47","FL","wuvcv75zvq","1280","720","de","VA04RD11","null","","","","learningBlock2","","","","That was a wug.","null","","","","",""
"","html-keyboard-response","391","508895","0.0-8.0-2.47","FL","wuvcv75zvq","1280","720","de","VA04RD11","null","","","","learningBlock2","","","","<div style=""font-size:60px;""> </div>","null","FL","learning/Slide128.JPG","That was a wug.","",""
"","image-keyboard-response","392","509073","0.0-8.0-0.48","FL","wuvcv75zvq","1280","720","de","VA04RD11","null","","","","","","","","learning/Slide129.JPG","null","","","","",""
"","html-keyboard-response","393","510325","0.0-8.0-1.48","FL","wuvcv75zvq","1280","720","de","VA04RD11","null","","","","learningBlock2","","","","That was a tob.","null","","","","",""
"","html-keyboard-response","394","511430","0.0-8.0-2.48","FL","wuvcv75zvq","1280","720","de","VA04RD11","null","","","","learningBlock2","","","","<div style=""font-size:60px;""> </div>","null","FL","learning/Slide129.JPG","That was a tob.","",""
"","image-keyboard-response","395","511606","0.0-8.0-0.49","FL","wuvcv75zvq","1280","720","de","VA04RD11","null","","","","","","","","learning/Slide130.JPG","null","","","","",""
"","html-keyboard-response","396","512759","0.0-8.0-1.49","FL","wuvcv75zvq","1280","720","de","VA04RD11","null","","","","learningBlock2","","","","That was a wug.","null","","","","",""
"","html-keyboard-response","397","513760","0.0-8.0-2.49","FL","wuvcv75zvq","1280","720","de","VA04RD11","null","","","","learningBlock2","","","","<div style=""font-size:60px;""> </div>","null","FL","learning/Slide130.JPG","That was a wug.","",""
"","image-keyboard-response","398","513937","0.0-8.0-0.50","FL","wuvcv75zvq","1280","720","de","VA04RD11","null","","","","","","","","learning/Slide131.JPG","null","","","","",""
"","html-keyboard-response","399","515090","0.0-8.0-1.50","FL","wuvcv75zvq","1280","720","de","VA04RD11","null","","","","learningBlock2","","","","That was a bim.","null","","","","",""
"","html-keyboard-response","400","516139","0.0-8.0-2.50","FL","wuvcv75zvq","1280","720","de","VA04RD11","null","","","","learningBlock2","","","","<div style=""font-size:60px;""> </div>","null","FL","learning/Slide131.JPG","That was a bim.","",""
"","image-keyboard-response","401","516314","0.0-8.0-0.51","FL","wuvcv75zvq","1280","720","de","VA04RD11","null","","","","","","","","learning/Slide132.JPG","null","","","","",""
"","html-keyboard-response","402","517468","0.0-8.0-1.51","FL","wuvcv75zvq","1280","720","de","VA04RD11","null","","","","learningBlock2","","","","That was a dep.","null","","","","",""
"","html-keyboard-response","403","518470","0.0-8.0-2.51","FL","wuvcv75zvq","1280","720","de","VA04RD11","null","","","","learningBlock2","","","","<div style=""font-size:60px;""> </div>","null","FL","learning/Slide132.JPG","That was a dep.","",""
"","image-keyboard-response","404","518648","0.0-8.0-0.52","FL","wuvcv75zvq","1280","720","de","VA04RD11","null","","","","","","","","learning/Slide133.JPG","null","","","","",""
"","html-keyboard-response","405","519816","0.0-8.0-1.52","FL","wuvcv75zvq","1280","720","de","VA04RD11","null","","","","learningBlock2","","","","That was a tob.","null","","","","",""
"","html-keyboard-response","406","520817","0.0-8.0-2.52","FL","wuvcv75zvq","1280","720","de","VA04RD11","null","","","","learningBlock2","","","","<div style=""font-size:60px;""> </div>","null","FL","learning/Slide133.JPG","That was a tob.","",""
"","image-keyboard-response","407","520994","0.0-8.0-0.53","FL","wuvcv75zvq","1280","720","de","VA04RD11","null","","","","","","","","learning/Slide134.JPG","null","","","","",""
"","html-keyboard-response","408","522147","0.0-8.0-1.53","FL","wuvcv75zvq","1280","720","de","VA04RD11","null","","","","learningBlock2","","","","That was a dep.","null","","","","",""
"","html-keyboard-response","409","523149","0.0-8.0-2.53","FL","wuvcv75zvq","1280","720","de","VA04RD11","null","","","","learningBlock2","","","","<div style=""font-size:60px;""> </div>","null","FL","learning/Slide134.JPG","That was a dep.","",""
"","image-keyboard-response","410","523324","0.0-8.0-0.54","FL","wuvcv75zvq","1280","720","de","VA04RD11","null","","","","","","","","learning/Slide135.JPG","null","","","","",""
"","html-keyboard-response","411","524478","0.0-8.0-1.54","FL","wuvcv75zvq","1280","720","de","VA04RD11","null","","","","learningBlock2","","","","That was a tob.","null","","","","",""
"","html-keyboard-response","412","525479","0.0-8.0-2.54","FL","wuvcv75zvq","1280","720","de","VA04RD11","null","","","","learningBlock2","","","","<div style=""font-size:60px;""> </div>","null","FL","learning/Slide135.JPG","That was a tob.","",""
"","image-keyboard-response","413","525657","0.0-8.0-0.55","FL","wuvcv75zvq","1280","720","de","VA04RD11","null","","","","","","","","learning/Slide136.JPG","null","","","","",""
"","html-keyboard-response","414","526809","0.0-8.0-1.55","FL","wuvcv75zvq","1280","720","de","VA04RD11","null","","","","learningBlock2","","","","That was a wug.","null","","","","",""
"","html-keyboard-response","415","527812","0.0-8.0-2.55","FL","wuvcv75zvq","1280","720","de","VA04RD11","null","","","","learningBlock2","","","","<div style=""font-size:60px;""> </div>","null","FL","learning/Slide136.JPG","That was a wug.","",""
"","image-keyboard-response","416","527988","0.0-8.0-0.56","FL","wuvcv75zvq","1280","720","de","VA04RD11","null","","","","","","","","learning/Slide137.JPG","null","","","","",""
"","html-keyboard-response","417","529143","0.0-8.0-1.56","FL","wuvcv75zvq","1280","720","de","VA04RD11","null","","","","learningBlock2","","","","That was a tob.","null","","","","",""
"","html-keyboard-response","418","530144","0.0-8.0-2.56","FL","wuvcv75zvq","1280","720","de","VA04RD11","null","","","","learningBlock2","","","","<div style=""font-size:60px;""> </div>","null","FL","learning/Slide137.JPG","That was a tob.","",""
"","image-keyboard-response","419","530320","0.0-8.0-0.57","FL","wuvcv75zvq","1280","720","de","VA04RD11","null","","","","","","","","learning/Slide138.JPG","null","","","","",""
"","html-keyboard-response","420","531473","0.0-8.0-1.57","FL","wuvcv75zvq","1280","720","de","VA04RD11","null","","","","learningBlock2","","","","That was a bim.","null","","","","",""
"","html-keyboard-response","421","532475","0.0-8.0-2.57","FL","wuvcv75zvq","1280","720","de","VA04RD11","null","","","","learningBlock2","","","","<div style=""font-size:60px;""> </div>","null","FL","learning/Slide138.JPG","That was a bim.","",""
"","image-keyboard-response","422","532650","0.0-8.0-0.58","FL","wuvcv75zvq","1280","720","de","VA04RD11","null","","","","","","","","learning/Slide139.JPG","null","","","","",""
"","html-keyboard-response","423","533804","0.0-8.0-1.58","FL","wuvcv75zvq","1280","720","de","VA04RD11","null","","","","learningBlock2","","","","That was a wug.","null","","","","",""
"","html-keyboard-response","424","534806","0.0-8.0-2.58","FL","wuvcv75zvq","1280","720","de","VA04RD11","null","","","","learningBlock2","","","","<div style=""font-size:60px;""> </div>","null","FL","learning/Slide139.JPG","That was a wug.","",""
"","image-keyboard-response","425","534983","0.0-8.0-0.59","FL","wuvcv75zvq","1280","720","de","VA04RD11","null","","","","","","","","learning/Slide140.JPG","null","","","","",""
"","html-keyboard-response","426","536136","0.0-8.0-1.59","FL","wuvcv75zvq","1280","720","de","VA04RD11","null","","","","learningBlock2","","","","That was a dep.","null","","","","",""
"","html-keyboard-response","427","537138","0.0-8.0-2.59","FL","wuvcv75zvq","1280","720","de","VA04RD11","null","","","","learningBlock2","","","","<div style=""font-size:60px;""> </div>","null","FL","learning/Slide140.JPG","That was a dep.","",""
"","image-keyboard-response","428","537314","0.0-8.0-0.60","FL","wuvcv75zvq","1280","720","de","VA04RD11","null","","","","","","","","learning/Slide141.JPG","null","","","","",""
"","html-keyboard-response","429","538467","0.0-8.0-1.60","FL","wuvcv75zvq","1280","720","de","VA04RD11","null","","","","learningBlock2","","","","That was a tob.","null","","","","",""
"","html-keyboard-response","430","539471","0.0-8.0-2.60","FL","wuvcv75zvq","1280","720","de","VA04RD11","null","","","","learningBlock2","","","","<div style=""font-size:60px;""> </div>","null","FL","learning/Slide141.JPG","That was a tob.","",""
"","image-keyboard-response","431","539647","0.0-8.0-0.61","FL","wuvcv75zvq","1280","720","de","VA04RD11","null","","","","","","","","learning/Slide142.JPG","null","","","","",""
"","html-keyboard-response","432","540926","0.0-8.0-1.61","FL","wuvcv75zvq","1280","720","de","VA04RD11","null","","","","learningBlock2","","","","That was a wug.","null","","","","",""
"","html-keyboard-response","433","542003","0.0-8.0-2.61","FL","wuvcv75zvq","1280","720","de","VA04RD11","null","","","","learningBlock2","","","","<div style=""font-size:60px;""> </div>","null","FL","learning/Slide142.JPG","That was a wug.","",""
"","image-keyboard-response","434","542179","0.0-8.0-0.62","FL","wuvcv75zvq","1280","720","de","VA04RD11","null","","","","","","","","learning/Slide143.JPG","null","","","","",""
"","html-keyboard-response","435","543331","0.0-8.0-1.62","FL","wuvcv75zvq","1280","720","de","VA04RD11","null","","","","learningBlock2","","","","That was a bim.","null","","","","",""
"","html-keyboard-response","436","544333","0.0-8.0-2.62","FL","wuvcv75zvq","1280","720","de","VA04RD11","null","","","","learningBlock2","","","","<div style=""font-size:60px;""> </div>","null","FL","learning/Slide143.JPG","That was a bim.","",""
"","image-keyboard-response","437","544511","0.0-8.0-0.63","FL","wuvcv75zvq","1280","720","de","VA04RD11","null","","","","","","","","learning/Slide144.JPG","null","","","","",""
"","html-keyboard-response","438","545665","0.0-8.0-1.63","FL","wuvcv75zvq","1280","720","de","VA04RD11","null","","","","learningBlock2","","","","That was a dep.","null","","","","",""
"","html-keyboard-response","439","546667","0.0-8.0-2.63","FL","wuvcv75zvq","1280","720","de","VA04RD11","null","","","","learningBlock2","","","","<div style=""font-size:60px;""> </div>","null","FL","learning/Slide144.JPG","That was a dep.","",""
"","image-keyboard-response","440","546845","0.0-8.0-0.64","FL","wuvcv75zvq","1280","720","de","VA04RD11","null","","","","","","","","learning/Slide145.JPG","null","","","","",""
"","html-keyboard-response","441","547997","0.0-8.0-1.64","FL","wuvcv75zvq","1280","720","de","VA04RD11","null","","","","learningBlock2","","","","That was a bim.","null","","","","",""
"","html-keyboard-response","442","548999","0.0-8.0-2.64","FL","wuvcv75zvq","1280","720","de","VA04RD11","null","","","","learningBlock2","","","","<div style=""font-size:60px;""> </div>","null","FL","learning/Slide145.JPG","That was a bim.","",""
"","image-keyboard-response","443","549178","0.0-8.0-0.65","FL","wuvcv75zvq","1280","720","de","VA04RD11","null","","","","","","","","learning/Slide146.JPG","null","","","","",""
"","html-keyboard-response","444","550330","0.0-8.0-1.65","FL","wuvcv75zvq","1280","720","de","VA04RD11","null","","","","learningBlock2","","","","That was a tob.","null","","","","",""
"","html-keyboard-response","445","551331","0.0-8.0-2.65","FL","wuvcv75zvq","1280","720","de","VA04RD11","null","","","","learningBlock2","","","","<div style=""font-size:60px;""> </div>","null","FL","learning/Slide146.JPG","That was a tob.","",""
"","image-keyboard-response","446","551508","0.0-8.0-0.66","FL","wuvcv75zvq","1280","720","de","VA04RD11","null","","","","","","","","learning/Slide147.JPG","null","","","","",""
"","html-keyboard-response","447","552660","0.0-8.0-1.66","FL","wuvcv75zvq","1280","720","de","VA04RD11","null","","","","learningBlock2","","","","That was a wug.","null","","","","",""
"","html-keyboard-response","448","553661","0.0-8.0-2.66","FL","wuvcv75zvq","1280","720","de","VA04RD11","null","","","","learningBlock2","","","","<div style=""font-size:60px;""> </div>","null","FL","learning/Slide147.JPG","That was a wug.","",""
"","image-keyboard-response","449","553839","0.0-8.0-0.67","FL","wuvcv75zvq","1280","720","de","VA04RD11","null","","","","","","","","learning/Slide148.JPG","null","","","","",""
"","html-keyboard-response","450","554992","0.0-8.0-1.67","FL","wuvcv75zvq","1280","720","de","VA04RD11","null","","","","learningBlock2","","","","That was a bim.","null","","","","",""
"","html-keyboard-response","451","555993","0.0-8.0-2.67","FL","wuvcv75zvq","1280","720","de","VA04RD11","null","","","","learningBlock2","","","","<div style=""font-size:60px;""> </div>","null","FL","learning/Slide148.JPG","That was a bim.","",""
"","image-keyboard-response","452","556170","0.0-8.0-0.68","FL","wuvcv75zvq","1280","720","de","VA04RD11","null","","","","","","","","learning/Slide149.JPG","null","","","","",""
"","html-keyboard-response","453","557324","0.0-8.0-1.68","FL","wuvcv75zvq","1280","720","de","VA04RD11","null","","","","learningBlock2","","","","That was a dep.","null","","","","",""
"","html-keyboard-response","454","558327","0.0-8.0-2.68","FL","wuvcv75zvq","1280","720","de","VA04RD11","null","","","","learningBlock2","","","","<div style=""font-size:60px;""> </div>","null","FL","learning/Slide149.JPG","That was a dep.","",""
"","image-keyboard-response","455","558504","0.0-8.0-0.69","FL","wuvcv75zvq","1280","720","de","VA04RD11","null","","","","","","","","learning/Slide150.JPG","null","","","","",""
"","html-keyboard-response","456","559659","0.0-8.0-1.69","FL","wuvcv75zvq","1280","720","de","VA04RD11","null","","","","learningBlock2","","","","That was a wug.","null","","","","",""
"","html-keyboard-response","457","560660","0.0-8.0-2.69","FL","wuvcv75zvq","1280","720","de","VA04RD11","null","","","","learningBlock2","","","","<div style=""font-size:60px;""> </div>","null","FL","learning/Slide150.JPG","That was a wug.","",""
"","image-keyboard-response","458","560837","0.0-8.0-0.70","FL","wuvcv75zvq","1280","720","de","VA04RD11","null","","","","","","","","learning/Slide151.JPG","null","","","","",""
"","html-keyboard-response","459","561992","0.0-8.0-1.70","FL","wuvcv75zvq","1280","720","de","VA04RD11","null","","","","learningBlock2","","","","That was a dep.","null","","","","",""
"","html-keyboard-response","460","562993","0.0-8.0-2.70","FL","wuvcv75zvq","1280","720","de","VA04RD11","null","","","","learningBlock2","","","","<div style=""font-size:60px;""> </div>","null","FL","learning/Slide151.JPG","That was a dep.","",""
"","image-keyboard-response","461","563169","0.0-8.0-0.71","FL","wuvcv75zvq","1280","720","de","VA04RD11","null","","","","","","","","learning/Slide152.JPG","null","","","","",""
"","html-keyboard-response","462","564323","0.0-8.0-1.71","FL","wuvcv75zvq","1280","720","de","VA04RD11","null","","","","learningBlock2","","","","That was a wug.","null","","","","",""
"","html-keyboard-response","463","565326","0.0-8.0-2.71","FL","wuvcv75zvq","1280","720","de","VA04RD11","null","","","","learningBlock2","","","","<div style=""font-size:60px;""> </div>","null","FL","learning/Slide152.JPG","That was a wug.","",""
"","image-keyboard-response","464","565505","0.0-8.0-0.72","FL","wuvcv75zvq","1280","720","de","VA04RD11","null","","","","","","","","learning/Slide153.JPG","null","","","","",""
"","html-keyboard-response","465","566658","0.0-8.0-1.72","FL","wuvcv75zvq","1280","720","de","VA04RD11","null","","","","learningBlock2","","","","That was a bim.","null","","","","",""
"","html-keyboard-response","466","567660","0.0-8.0-2.72","FL","wuvcv75zvq","1280","720","de","VA04RD11","null","","","","learningBlock2","","","","<div style=""font-size:60px;""> </div>","null","FL","learning/Slide153.JPG","That was a bim.","",""
"","image-keyboard-response","467","567837","0.0-8.0-0.73","FL","wuvcv75zvq","1280","720","de","VA04RD11","null","","","","","","","","learning/Slide154.JPG","null","","","","",""
"","html-keyboard-response","468","568990","0.0-8.0-1.73","FL","wuvcv75zvq","1280","720","de","VA04RD11","null","","","","learningBlock2","","","","That was a tob.","null","","","","",""
"","html-keyboard-response","469","569993","0.0-8.0-2.73","FL","wuvcv75zvq","1280","720","de","VA04RD11","null","","","","learningBlock2","","","","<div style=""font-size:60px;""> </div>","null","FL","learning/Slide154.JPG","That was a tob.","",""
"","image-keyboard-response","470","570170","0.0-8.0-0.74","FL","wuvcv75zvq","1280","720","de","VA04RD11","null","","","","","","","","learning/Slide155.JPG","null","","","","",""
"","html-keyboard-response","471","571324","0.0-8.0-1.74","FL","wuvcv75zvq","1280","720","de","VA04RD11","null","","","","learningBlock2","","","","That was a dep.","null","","","","",""
"","html-keyboard-response","472","572327","0.0-8.0-2.74","FL","wuvcv75zvq","1280","720","de","VA04RD11","null","","","","learningBlock2","","","","<div style=""font-size:60px;""> </div>","null","FL","learning/Slide155.JPG","That was a dep.","",""
"","image-keyboard-response","473","572537","0.0-8.0-0.75","FL","wuvcv75zvq","1280","720","de","VA04RD11","null","","","","","","","","learning/Slide156.JPG","null","","","","",""
"","html-keyboard-response","474","573692","0.0-8.0-1.75","FL","wuvcv75zvq","1280","720","de","VA04RD11","null","","","","learningBlock2","","","","That was a bim.","null","","","","",""
"","html-keyboard-response","475","574695","0.0-8.0-2.75","FL","wuvcv75zvq","1280","720","de","VA04RD11","null","","","","learningBlock2","","","","<div style=""font-size:60px;""> </div>","null","FL","learning/Slide156.JPG","That was a bim.","",""
"","image-keyboard-response","476","574873","0.0-8.0-0.76","FL","wuvcv75zvq","1280","720","de","VA04RD11","null","","","","","","","","learning/Slide157.JPG","null","","","","",""
"","html-keyboard-response","477","576028","0.0-8.0-1.76","FL","wuvcv75zvq","1280","720","de","VA04RD11","null","","","","learningBlock2","","","","That was a dep.","null","","","","",""
"","html-keyboard-response","478","577030","0.0-8.0-2.76","FL","wuvcv75zvq","1280","720","de","VA04RD11","null","","","","learningBlock2","","","","<div style=""font-size:60px;""> </div>","null","FL","learning/Slide157.JPG","That was a dep.","",""
"","image-keyboard-response","479","577207","0.0-8.0-0.77","FL","wuvcv75zvq","1280","720","de","VA04RD11","null","","","","","","","","learning/Slide158.JPG","null","","","","",""
"","html-keyboard-response","480","578358","0.0-8.0-1.77","FL","wuvcv75zvq","1280","720","de","VA04RD11","null","","","","learningBlock2","","","","That was a tob.","null","","","","",""
"","html-keyboard-response","481","579359","0.0-8.0-2.77","FL","wuvcv75zvq","1280","720","de","VA04RD11","null","","","","learningBlock2","","","","<div style=""font-size:60px;""> </div>","null","FL","learning/Slide158.JPG","That was a tob.","",""
"","image-keyboard-response","482","579536","0.0-8.0-0.78","FL","wuvcv75zvq","1280","720","de","VA04RD11","null","","","","","","","","learning/Slide159.JPG","null","","","","",""
"","html-keyboard-response","483","580688","0.0-8.0-1.78","FL","wuvcv75zvq","1280","720","de","VA04RD11","null","","","","learningBlock2","","","","That was a dep.","null","","","","",""
"","html-keyboard-response","484","581688","0.0-8.0-2.78","FL","wuvcv75zvq","1280","720","de","VA04RD11","null","","","","learningBlock2","","","","<div style=""font-size:60px;""> </div>","null","FL","learning/Slide159.JPG","That was a dep.","",""
"","image-keyboard-response","485","581867","0.0-8.0-0.79","FL","wuvcv75zvq","1280","720","de","VA04RD11","null","","","","","","","","learning/Slide160.JPG","null","","","","",""
"","html-keyboard-response","486","583055","0.0-8.0-1.79","FL","wuvcv75zvq","1280","720","de","VA04RD11","null","","","","learningBlock2","","","","That was a wug.","null","","","","",""
"","html-keyboard-response","487","584056","0.0-8.0-2.79","FL","wuvcv75zvq","1280","720","de","VA04RD11","null","","","","learningBlock2","","","","<div style=""font-size:60px;""> </div>","null","FL","learning/Slide160.JPG","That was a wug.","",""
"","resize2","488","587829","0.0-9.0","FL","wuvcv75zvq","1280","720","de","VA04RD11","","","","","","","104","1.04","","","","","","",""
