fribbleID,subjID,trial_index,plugin,rt,prolificID,task,resp,learning,label,trialType,frequency,fribblePresented,trial,labelPresented,correctCategory,correctFrequency,correctLabel,body
1025,2n2kv71sum,657,image-slider-response,3687,5e67d9ed33e6a60542f4dfd7,conJudg,-100,LF,wug,match,l,2.2,5,wug,2,low,wug,blue
1025,j07stgzsr2,633,image-slider-response,3417,5d77c0eb4a666c0019561a80,conJudg,100,FL,wug,match,l,2.2,5,wug,2,low,wug,blue
1025,67zqwpqc3v,667,image-slider-response,2273,5ea3066769713007dfc5f1c3,conJudg,45,LF,wug,match,l,2.2,5,wug,2,low,wug,blue
1025,jfuskuq35s,715,image-slider-response,3916,5f50e3d60305bb088998b766,conJudg,-61,LF,wug,match,l,2.2,5,wug,2,low,wug,blue
1025,rhglzajksw,635,image-slider-response,2864,5ea98f445ef6ee093f4f05ec,conJudg,-100,FL,wug,match,l,2.2,5,wug,2,low,wug,blue
1025,e72zvev590,679,image-slider-response,1587,5e6617541d7e1a3885c45e85,conJudg,-16,FL,wug,match,l,2.2,5,wug,2,low,wug,blue
1025,xekfnorue1,619,image-slider-response,2469,5a11a7d0f2e3460001edbe35,conJudg,-84,FL,wug,match,l,2.2,5,wug,2,low,wug,blue
1025,rl7z98kzoa,635,image-slider-response,4597,5faa8121f8f5533a5c7f7a20,conJudg,-67,LF,wug,match,l,2.2,5,wug,2,low,wug,blue
1025,vzebe40w15,619,image-slider-response,2163,5fce9a625474c41129c10fb1,conJudg,-100,LF,wug,match,l,2.2,5,wug,2,low,wug,blue
1025,dn0e1jm7ff,619,image-slider-response,4882,5e0cf83bc12a3649f4c9ee92,conJudg,0,LF,wug,match,l,2.2,5,wug,2,low,wug,blue
1025,mus0v446tm,623,image-slider-response,3896,5f8dda4538ed0614d9ac476b,conJudg,-100,LF,wug,match,l,2.2,5,wug,2,low,wug,blue
1025,4euvjgbfcc,687,image-slider-response,2976,600355394a113e408f54cce5,conJudg,-100,LF,wug,match,l,2.2,5,wug,2,low,wug,blue
1025,b00qxzsc7o,687,image-slider-response,2899,5ffc250201d8312c325a16a5,conJudg,100,FL,wug,match,l,2.2,5,wug,2,low,wug,blue
1025,71bdswcm9k,685,image-slider-response,2492,5f591a5a9a49e211efead835,conJudg,-99,LF,wug,match,l,2.2,5,wug,2,low,wug,blue
1025,lpb8r8jcs5,699,image-slider-response,4013,5dc1e79c880a2915309a8ee3,conJudg,100,LF,wug,match,l,2.2,5,wug,2,low,wug,blue
1025,b576vfvfdd,605,image-slider-response,5303,5ea85cf4ad1f760a537eadfe,conJudg,49,FL,wug,match,l,2.2,5,wug,2,low,wug,blue
1025,581oqcuhue,699,image-slider-response,3524,6009c2eda21be3026447d80e,conJudg,-100,LF,wug,match,l,2.2,5,wug,2,low,wug,blue
1025,55ovzw4068,623,image-slider-response,2745,5f830f1644cc14447b03305c,conJudg,-71,FL,wug,match,l,2.2,5,wug,2,low,wug,blue
1025,v9kdh4rpsp,655,image-slider-response,2814,5ed14691e983f5067842fd20,conJudg,-100,LF,wug,match,l,2.2,5,wug,2,low,wug,blue
1025,s0xp76sxy4,657,image-slider-response,1758,5f68a907efe6b000080540be,conJudg,0,LF,wug,match,l,2.2,5,wug,2,low,wug,blue
1025,ol68ft1h8h,667,image-slider-response,3195,5e5e17c97593e912e086c640,conJudg,65,FL,wug,match,l,2.2,5,wug,2,low,wug,blue
1025,wod6ma11s3,689,image-slider-response,2556,5f8228f40afba53534e6f583,conJudg,80,FL,wug,match,l,2.2,5,wug,2,low,wug,blue
1025,yhakp9pfe9,645,image-slider-response,3934,5f57a42b46df8927414990fc,conJudg,98,LF,wug,match,l,2.2,5,wug,2,low,wug,blue
1025,mvqchu948c,665,image-slider-response,2677,5b421b9ac2e3810001763252,conJudg,-33,FL,wug,match,l,2.2,5,wug,2,low,wug,blue
1025,8706z1pc24,701,image-slider-response,1877,5c916456ec114b0016418dca,conJudg,-100,LF,wug,match,l,2.2,5,wug,2,low,wug,blue
1025,yc8mkz3uaa,677,image-slider-response,2084,5eaeb8b513f83a57d35db285,conJudg,5,LF,wug,match,l,2.2,5,wug,2,low,wug,blue
1025,kfhtlqkth4,711,image-slider-response,4150,5edf8803c008532459792282,conJudg,-50,FL,wug,match,l,2.2,5,wug,2,low,wug,blue
1025,ffbjr4pqha,721,image-slider-response,2108,6009c27b9e9b700266fd52b5,conJudg,100,FL,wug,match,l,2.2,5,wug,2,low,wug,blue
1025,psp3bt1vuy,631,image-slider-response,509,5933d3c4ed2e9a0001d37ab4,conJudg,0,FL,wug,match,l,2.2,5,wug,2,low,wug,blue
1025,1e9hhup9lf,609,image-slider-response,2209,5cbc680bfb8dfe0001839ba2,conJudg,-23,LF,wug,match,l,2.2,5,wug,2,low,wug,blue
1025,gqq2p40hu9,697,image-slider-response,NA,5d41aa9ec61bc300012c73f6,conJudg,NA,LF,wug,match,l,2.2,5,wug,2,low,wug,blue
1025,e9dxj57s6l,711,image-slider-response,3044,5eb58476f88d4008fa483809,conJudg,-45,FL,wug,match,l,2.2,5,wug,2,low,wug,blue
1025,ssktzegauz,685,image-slider-response,3317,5edba672293f3b028b70eb25,conJudg,-100,LF,wug,match,l,2.2,5,wug,2,low,wug,blue
1025,0yjn7eg9zc,703,image-slider-response,3482,5f06ee44c10cab2655ea3822,conJudg,-96,FL,wug,match,l,2.2,5,wug,2,low,wug,blue
1025,pmz1eqhg0u,631,image-slider-response,3493,5f1bfe98441e2743f34fa16a,conJudg,50,LF,wug,match,l,2.2,5,wug,2,low,wug,blue
1025,xtbpfv8d5p,655,image-slider-response,3882,5fbade0c4594d6b7c7d96ca9,conJudg,-100,FL,wug,match,l,2.2,5,wug,2,low,wug,blue
1025,6j0z0b0c72,605,image-slider-response,NA,5ea44104a980d23d4f21f7ad,conJudg,NA,LF,wug,match,l,2.2,5,wug,2,low,wug,blue
1025,q3zadoj47e,635,image-slider-response,2788,5e47ad846c3d4425c60ccbe5,conJudg,-100,FL,wug,match,l,2.2,5,wug,2,low,wug,blue
1025,jlov66vr8s,707,image-slider-response,2205,5fc65eb000091528ea745f65,conJudg,-100,FL,wug,match,l,2.2,5,wug,2,low,wug,blue
1025,jxvpkh0u3z,607,image-slider-response,1837,5fd74512393436000a1a7323,conJudg,-97,FL,wug,match,l,2.2,5,wug,2,low,wug,blue
1025,vkybhfxevw,685,image-slider-response,1840,5f9d4170f629422451ac7fd8,conJudg,-58,LF,wug,match,l,2.2,5,wug,2,low,wug,blue
1025,t5ex7zbfo2,621,image-slider-response,1624,5fd7ee02c0a4610ea7d258b4,conJudg,-100,LF,wug,match,l,2.2,5,wug,2,low,wug,blue
1025,hcnkaylepg,609,image-slider-response,3268,5ce8ebe9c9379d0019898681,conJudg,31,FL,wug,match,l,2.2,5,wug,2,low,wug,blue
1025,d1c4anqfzp,609,image-slider-response,5894,5c5d6b55b7ce2100011fa04e,conJudg,56,FL,wug,match,l,2.2,5,wug,2,low,wug,blue
1025,zq33udleq5,633,image-slider-response,5055,5ec527351fc19046fdd6cd59,conJudg,-57,FL,wug,match,l,2.2,5,wug,2,low,wug,blue
1025,ker7u0dhxt,635,image-slider-response,3115,5c87d68fe5bc060001ee8498,conJudg,1,FL,wug,match,l,2.2,5,wug,2,low,wug,blue
1025,pbt3n7l1gj,627,image-slider-response,2647,5f63d70e4e460f141abccbc1,conJudg,56,FL,wug,match,l,2.2,5,wug,2,low,wug,blue
1025,nsqbzarmrc,681,image-slider-response,4789,601e9d81606b8d337ab338e4,conJudg,-100,FL,wug,match,l,2.2,5,wug,2,low,wug,blue
1025,8k7ujzqkju,685,image-slider-response,3146,5e8b2e599abd417d9512a877,conJudg,-100,LF,wug,match,l,2.2,5,wug,2,low,wug,blue
1025,53gv7n4gtu,687,image-slider-response,3001,601fd3cd92f028532a257baf,conJudg,100,LF,wug,match,l,2.2,5,wug,2,low,wug,blue
1025,ufb4y7bj2f,643,image-slider-response,1993,5c2ce112f422870001fcab1f,conJudg,-34,FL,wug,match,l,2.2,5,wug,2,low,wug,blue
1025,f9gvt2ubve,627,image-slider-response,3207,5f529cd9e0a90c58773ec3fe,conJudg,44,LF,wug,match,l,2.2,5,wug,2,low,wug,blue
1025,4xwhpmkg0h,705,image-slider-response,3174,5ef12a14ab53a21a9012b389,conJudg,-71,FL,wug,match,l,2.2,5,wug,2,low,wug,blue
1025,g8ez0w4wvj,629,image-slider-response,1695,5ec32348079dcc17451cac16,conJudg,-100,FL,wug,match,l,2.2,5,wug,2,low,wug,blue
1025,zt96waez4c,687,image-slider-response,1186,5daca66b71a51b00113172ce,conJudg,57,LF,wug,match,l,2.2,5,wug,2,low,wug,blue
1025,d1snyw7jw6,665,image-slider-response,2268,5fc13b486833fb13fef1720b,conJudg,-100,LF,wug,match,l,2.2,5,wug,2,low,wug,blue
1025,f208my9c1t,667,image-slider-response,3999,5d920df12b679a00182bbc73,conJudg,-95,LF,wug,match,l,2.2,5,wug,2,low,wug,blue
1025,9x75jv8vpf,695,image-slider-response,2335,5f34cb60fa6cf63ecf31902d,conJudg,-91,FL,wug,match,l,2.2,5,wug,2,low,wug,blue
1025,t2ubvm70lv,621,image-slider-response,2156,5f858743256d25036d9fa693,conJudg,48,LF,wug,match,l,2.2,5,wug,2,low,wug,blue
1025,uyc3tp4v50,667,image-slider-response,2055,6017d6a23bdebea5e9062e9d,conJudg,-100,FL,wug,match,l,2.2,5,wug,2,low,wug,blue
1025,1gynr5ywqp,615,image-slider-response,1808,5db1bba0e20f58000b8717f6,conJudg,-51,FL,wug,match,l,2.2,5,wug,2,low,wug,blue
1025,ym6cxam2f3,657,image-slider-response,3376,5ee87dba82ed8101333c7744,conJudg,-100,FL,wug,match,l,2.2,5,wug,2,low,wug,blue
1025,3mctt6t3lt,659,image-slider-response,2149,5b3cb17b6779080001fe88c1,conJudg,-100,FL,wug,match,l,2.2,5,wug,2,low,wug,blue
1025,daqg5rc8xw,645,image-slider-response,3363,5eadc934201643479a185e59,conJudg,18,LF,wug,match,l,2.2,5,wug,2,low,wug,blue
1025,5urksolxqo,689,image-slider-response,4643,5d10fe33fbbf3d001a56d936,conJudg,40,LF,wug,match,l,2.2,5,wug,2,low,wug,blue
1025,hc4uh4u04h,695,image-slider-response,3171,5f5d6c3cbacc025bf0a03440,conJudg,-100,FL,wug,match,l,2.2,5,wug,2,low,wug,blue
1025,5qj7var04h,611,image-slider-response,4305,5f4f835cea1e870397a4d295,conJudg,-83,LF,wug,match,l,2.2,5,wug,2,low,wug,blue
1025,98ysefwhzk,649,image-slider-response,2550,5f482f05cd5e5d2d1d57c1ff,conJudg,-100,LF,wug,match,l,2.2,5,wug,2,low,wug,blue
1025,e4s1gf870t,665,image-slider-response,1809,5f677b748c011837e12cba61,conJudg,59,FL,wug,match,l,2.2,5,wug,2,low,wug,blue
1025,s52728tqhv,685,image-slider-response,3440,6014777b8a88c449408352c5,conJudg,35,LF,wug,match,l,2.2,5,wug,2,low,wug,blue
1025,yj9gmh2tyv,657,image-slider-response,3527,5e8dcc81e6686e035680594e,conJudg,100,LF,wug,match,l,2.2,5,wug,2,low,wug,blue
1025,9y1b9uh65r,639,image-slider-response,1037,5daca079bf590700167f704d,conJudg,28,LF,wug,match,l,2.2,5,wug,2,low,wug,blue
1025,823tgxfuz7,611,image-slider-response,3830,5f632ea32e85353d93872c67,conJudg,-90,LF,wug,match,l,2.2,5,wug,2,low,wug,blue
1025,0tf06g8uzp,619,image-slider-response,4393,5b98223fbdb1df0001f1e684,conJudg,-100,LF,wug,match,l,2.2,5,wug,2,low,wug,blue
1025,cjpw7y8c1k,705,image-slider-response,2235,5efdc12f5d69f622915a97a1,conJudg,-100,LF,wug,match,l,2.2,5,wug,2,low,wug,blue
1025,163k2z1uov,671,image-slider-response,3890,5f11ccbc1a1a2c08b4a99efb,conJudg,-5,LF,wug,match,l,2.2,5,wug,2,low,wug,blue
1025,85gul0f7qh,647,image-slider-response,2368,5e4ab1b4ca765d000edebd15,conJudg,-100,LF,wug,match,l,2.2,5,wug,2,low,wug,blue
1025,32gxlbaw1s,717,image-slider-response,1873,5ea2381ad0a4b71481c298e7,conJudg,-100,LF,wug,match,l,2.2,5,wug,2,low,wug,blue
1025,qfloq0vkd1,617,image-slider-response,1821,5acb896da3ba7a0001b4e99f,conJudg,41,LF,wug,match,l,2.2,5,wug,2,low,wug,blue
1025,o0xz7vf2yt,703,image-slider-response,1858,5f2b196c0c610f4ec3eb5451,conJudg,-100,LF,wug,match,l,2.2,5,wug,2,low,wug,blue
1025,ek1v85vere,611,image-slider-response,2215,5bdcd99964215c0001282b34,conJudg,100,LF,wug,match,l,2.2,5,wug,2,low,wug,blue
1025,w2brxm7ay2,607,image-slider-response,5360,5f60713e595007000a8e1da7,conJudg,-44,FL,wug,match,l,2.2,5,wug,2,low,wug,blue
1025,o7w146d4yj,625,image-slider-response,2657,5f343de4d0c07630b7f90b92,conJudg,-100,LF,wug,match,l,2.2,5,wug,2,low,wug,blue
1025,38cgqt2jvy,721,image-slider-response,3366,5f83138efa73fa44e23c5237,conJudg,65,FL,wug,match,l,2.2,5,wug,2,low,wug,blue
1025,9q76krfydn,619,image-slider-response,2127,5f3d9a9f10a5f219cfe0b404,conJudg,37,FL,wug,match,l,2.2,5,wug,2,low,wug,blue
1025,26fmzvup9c,605,image-slider-response,3254,5e94262948e806768dfa43ed,conJudg,-49,FL,wug,match,l,2.2,5,wug,2,low,wug,blue
1025,y20qp8dcxo,625,image-slider-response,4061,5f578563765fec223eb51594,conJudg,40,LF,wug,match,l,2.2,5,wug,2,low,wug,blue
1025,cpd84kvzmq,679,image-slider-response,4103,5ed63a6d50ece703aa7bffb9,conJudg,91,FL,wug,match,l,2.2,5,wug,2,low,wug,blue
1025,t8qovvqyjq,657,image-slider-response,3652,5f89cbc45b38f5016101011c,conJudg,100,FL,wug,match,l,2.2,5,wug,2,low,wug,blue
1025,q963ed16o4,627,image-slider-response,2974,6006cf1238099707863fc7b4,conJudg,-100,FL,wug,match,l,2.2,5,wug,2,low,wug,blue
1025,371addqx7x,703,image-slider-response,4772,5d8cd4be7bd5180017d887a3,conJudg,0,FL,wug,match,l,2.2,5,wug,2,low,wug,blue
1025,pusqm5jv5t,643,image-slider-response,3592,5f477a85d919ec03cadfaddd,conJudg,-99,FL,wug,match,l,2.2,5,wug,2,low,wug,blue
1025,e4msx463h0,715,image-slider-response,4310,5f1f04c1604e3508877cf62a,conJudg,31,FL,wug,match,l,2.2,5,wug,2,low,wug,blue
1025,oqwgn1zhn1,645,image-slider-response,3733,5eb5cb8ddef42c4ad1456dd9,conJudg,-100,FL,wug,match,l,2.2,5,wug,2,low,wug,blue
1025,qnx5xathwg,619,image-slider-response,7755,5cc7f4b3854fb30001d0c13a,conJudg,-38,LF,wug,match,l,2.2,5,wug,2,low,wug,blue
1025,sxbrz00bs5,701,image-slider-response,2811,5ee7335388010f4c1b6bbdc2,conJudg,-100,LF,wug,match,l,2.2,5,wug,2,low,wug,blue
1025,fkw1vwzc6v,697,image-slider-response,3176,5f50d630390521264e606772,conJudg,-91,FL,wug,match,l,2.2,5,wug,2,low,wug,blue
1025,fggxxfkvfo,655,image-slider-response,3106,5fbfb86436a5de31c546f37b,conJudg,41,LF,wug,match,l,2.2,5,wug,2,low,wug,blue
1025,5g2fbehb04,663,image-slider-response,2938,591a1f4800a5650001276188,conJudg,-100,FL,wug,match,l,2.2,5,wug,2,low,wug,blue
1025,kyb3lzn0xx,605,image-slider-response,884,5ee9cbbbdcf662000932fb78,conJudg,-37,LF,wug,match,l,2.2,5,wug,2,low,wug,blue
1025,r4145wj5y7,611,image-slider-response,6323,5f78b0e3b43f410c88d3af45,conJudg,-48,LF,wug,match,l,2.2,5,wug,2,low,wug,blue
1025,z4xhznw88z,661,image-slider-response,4016,5fae68d5b74c182cacbe5d6a,conJudg,-100,LF,wug,match,l,2.2,5,wug,2,low,wug,blue
1025,s80pnsgly8,709,image-slider-response,2256,5ed09b6985143f000c08b6b8,conJudg,42,FL,wug,match,l,2.2,5,wug,2,low,wug,blue
1025,3b8h3oor4p,657,image-slider-response,3701,5f61bbe3c18cc915aac68b32,conJudg,-100,FL,wug,match,l,2.2,5,wug,2,low,wug,blue
1025,xu8vthdm2k,707,image-slider-response,2763,5f85eb74d99dd00d735c107f,conJudg,-100,FL,wug,match,l,2.2,5,wug,2,low,wug,blue
1025,3a2waojqmg,715,image-slider-response,3086,5e6a2c7c5b057b08e930e89d,conJudg,-33,FL,wug,match,l,2.2,5,wug,2,low,wug,blue
1025,x8lrz32hbv,663,image-slider-response,NA,5e7b899a6b890e0659e5e82e,conJudg,NA,FL,wug,match,l,2.2,5,wug,2,low,wug,blue
1025,gcrz58pdx0,621,image-slider-response,4221,5f9b106e21189e2d3b853846,conJudg,-100,LF,wug,match,l,2.2,5,wug,2,low,wug,blue
1025,aj9q5o0gf2,635,image-slider-response,4059,5b01e69aa496b300013d5b9b,conJudg,-72,FL,wug,match,l,2.2,5,wug,2,low,wug,blue
1075,qfloq0vkd1,711,image-slider-response,2309,5acb896da3ba7a0001b4e99f,conJudg,100,LF,wug,match,h,2.1,5,wug,2,high,wug,purple
1075,fkw1vwzc6v,649,image-slider-response,NA,5f50d630390521264e606772,conJudg,NA,FL,wug,match,h,2.1,5,wug,2,high,wug,purple
1075,581oqcuhue,667,image-slider-response,3505,6009c2eda21be3026447d80e,conJudg,100,LF,wug,match,h,2.1,5,wug,2,high,wug,purple
1075,823tgxfuz7,645,image-slider-response,3262,5f632ea32e85353d93872c67,conJudg,100,LF,wug,match,h,2.1,5,wug,2,high,wug,purple
1075,9y1b9uh65r,683,image-slider-response,1972,5daca079bf590700167f704d,conJudg,25,LF,wug,match,h,2.1,5,wug,2,high,wug,purple
1075,f208my9c1t,629,image-slider-response,6438,5d920df12b679a00182bbc73,conJudg,95,LF,wug,match,h,2.1,5,wug,2,high,wug,purple
1075,ek1v85vere,677,image-slider-response,1937,5bdcd99964215c0001282b34,conJudg,100,LF,wug,match,h,2.1,5,wug,2,high,wug,purple
1075,g8ez0w4wvj,643,image-slider-response,1718,5ec32348079dcc17451cac16,conJudg,100,FL,wug,match,h,2.1,5,wug,2,high,wug,purple
1075,zq33udleq5,637,image-slider-response,2723,5ec527351fc19046fdd6cd59,conJudg,88,FL,wug,match,h,2.1,5,wug,2,high,wug,purple
1075,e4s1gf870t,615,image-slider-response,2166,5f677b748c011837e12cba61,conJudg,-48,FL,wug,match,h,2.1,5,wug,2,high,wug,purple
1075,3a2waojqmg,647,image-slider-response,3322,5e6a2c7c5b057b08e930e89d,conJudg,54,FL,wug,match,h,2.1,5,wug,2,high,wug,purple
1075,4euvjgbfcc,631,image-slider-response,2125,600355394a113e408f54cce5,conJudg,100,LF,wug,match,h,2.1,5,wug,2,high,wug,purple
1075,55ovzw4068,645,image-slider-response,3600,5f830f1644cc14447b03305c,conJudg,100,FL,wug,match,h,2.1,5,wug,2,high,wug,purple
1075,yc8mkz3uaa,631,image-slider-response,2094,5eaeb8b513f83a57d35db285,conJudg,100,LF,wug,match,h,2.1,5,wug,2,high,wug,purple
1075,3b8h3oor4p,701,image-slider-response,2475,5f61bbe3c18cc915aac68b32,conJudg,100,FL,wug,match,h,2.1,5,wug,2,high,wug,purple
1075,hc4uh4u04h,645,image-slider-response,2618,5f5d6c3cbacc025bf0a03440,conJudg,100,FL,wug,match,h,2.1,5,wug,2,high,wug,purple
1075,q963ed16o4,615,image-slider-response,2246,6006cf1238099707863fc7b4,conJudg,100,FL,wug,match,h,2.1,5,wug,2,high,wug,purple
1075,b576vfvfdd,721,image-slider-response,5355,5ea85cf4ad1f760a537eadfe,conJudg,50,FL,wug,match,h,2.1,5,wug,2,high,wug,purple
1075,yj9gmh2tyv,673,image-slider-response,2489,5e8dcc81e6686e035680594e,conJudg,100,LF,wug,match,h,2.1,5,wug,2,high,wug,purple
1075,d1c4anqfzp,639,image-slider-response,5032,5c5d6b55b7ce2100011fa04e,conJudg,100,FL,wug,match,h,2.1,5,wug,2,high,wug,purple
1075,38cgqt2jvy,685,image-slider-response,5300,5f83138efa73fa44e23c5237,conJudg,20,FL,wug,match,h,2.1,5,wug,2,high,wug,purple
1075,67zqwpqc3v,661,image-slider-response,2043,5ea3066769713007dfc5f1c3,conJudg,-68,LF,wug,match,h,2.1,5,wug,2,high,wug,purple
1075,mus0v446tm,711,image-slider-response,2189,5f8dda4538ed0614d9ac476b,conJudg,100,LF,wug,match,h,2.1,5,wug,2,high,wug,purple
1075,pmz1eqhg0u,613,image-slider-response,5153,5f1bfe98441e2743f34fa16a,conJudg,-5,LF,wug,match,h,2.1,5,wug,2,high,wug,purple
1075,5qj7var04h,705,image-slider-response,2242,5f4f835cea1e870397a4d295,conJudg,100,LF,wug,match,h,2.1,5,wug,2,high,wug,purple
1075,yhakp9pfe9,699,image-slider-response,NA,5f57a42b46df8927414990fc,conJudg,NA,LF,wug,match,h,2.1,5,wug,2,high,wug,purple
1075,vzebe40w15,633,image-slider-response,3247,5fce9a625474c41129c10fb1,conJudg,100,LF,wug,match,h,2.1,5,wug,2,high,wug,purple
1075,85gul0f7qh,663,image-slider-response,2417,5e4ab1b4ca765d000edebd15,conJudg,100,LF,wug,match,h,2.1,5,wug,2,high,wug,purple
1075,mvqchu948c,621,image-slider-response,3438,5b421b9ac2e3810001763252,conJudg,60,FL,wug,match,h,2.1,5,wug,2,high,wug,purple
1075,vkybhfxevw,675,image-slider-response,1569,5f9d4170f629422451ac7fd8,conJudg,100,LF,wug,match,h,2.1,5,wug,2,high,wug,purple
1075,0yjn7eg9zc,633,image-slider-response,2292,5f06ee44c10cab2655ea3822,conJudg,100,FL,wug,match,h,2.1,5,wug,2,high,wug,purple
1075,3mctt6t3lt,689,image-slider-response,2174,5b3cb17b6779080001fe88c1,conJudg,100,FL,wug,match,h,2.1,5,wug,2,high,wug,purple
1075,t8qovvqyjq,689,image-slider-response,4849,5f89cbc45b38f5016101011c,conJudg,100,FL,wug,match,h,2.1,5,wug,2,high,wug,purple
1075,zt96waez4c,617,image-slider-response,1526,5daca66b71a51b00113172ce,conJudg,-31,LF,wug,match,h,2.1,5,wug,2,high,wug,purple
1075,kyb3lzn0xx,693,image-slider-response,1427,5ee9cbbbdcf662000932fb78,conJudg,100,LF,wug,match,h,2.1,5,wug,2,high,wug,purple
1075,71bdswcm9k,613,image-slider-response,2831,5f591a5a9a49e211efead835,conJudg,100,LF,wug,match,h,2.1,5,wug,2,high,wug,purple
1075,53gv7n4gtu,607,image-slider-response,5375,601fd3cd92f028532a257baf,conJudg,0,LF,wug,match,h,2.1,5,wug,2,high,wug,purple
1075,d1snyw7jw6,657,image-slider-response,1917,5fc13b486833fb13fef1720b,conJudg,100,LF,wug,match,h,2.1,5,wug,2,high,wug,purple
1075,nsqbzarmrc,677,image-slider-response,2524,601e9d81606b8d337ab338e4,conJudg,100,FL,wug,match,h,2.1,5,wug,2,high,wug,purple
1075,32gxlbaw1s,613,image-slider-response,2275,5ea2381ad0a4b71481c298e7,conJudg,100,LF,wug,match,h,2.1,5,wug,2,high,wug,purple
1075,e72zvev590,633,image-slider-response,4994,5e6617541d7e1a3885c45e85,conJudg,0,FL,wug,match,h,2.1,5,wug,2,high,wug,purple
1075,pusqm5jv5t,633,image-slider-response,2671,5f477a85d919ec03cadfaddd,conJudg,100,FL,wug,match,h,2.1,5,wug,2,high,wug,purple
1075,98ysefwhzk,627,image-slider-response,2885,5f482f05cd5e5d2d1d57c1ff,conJudg,100,LF,wug,match,h,2.1,5,wug,2,high,wug,purple
1075,8k7ujzqkju,635,image-slider-response,2503,5e8b2e599abd417d9512a877,conJudg,-100,LF,wug,match,h,2.1,5,wug,2,high,wug,purple
1075,0tf06g8uzp,691,image-slider-response,3414,5b98223fbdb1df0001f1e684,conJudg,100,LF,wug,match,h,2.1,5,wug,2,high,wug,purple
1075,rl7z98kzoa,617,image-slider-response,3250,5faa8121f8f5533a5c7f7a20,conJudg,40,LF,wug,match,h,2.1,5,wug,2,high,wug,purple
1075,s80pnsgly8,645,image-slider-response,2630,5ed09b6985143f000c08b6b8,conJudg,82,FL,wug,match,h,2.1,5,wug,2,high,wug,purple
1075,xekfnorue1,721,image-slider-response,3327,5a11a7d0f2e3460001edbe35,conJudg,80,FL,wug,match,h,2.1,5,wug,2,high,wug,purple
1075,1gynr5ywqp,673,image-slider-response,5856,5db1bba0e20f58000b8717f6,conJudg,80,FL,wug,match,h,2.1,5,wug,2,high,wug,purple
1075,y20qp8dcxo,621,image-slider-response,2745,5f578563765fec223eb51594,conJudg,100,LF,wug,match,h,2.1,5,wug,2,high,wug,purple
1075,371addqx7x,685,image-slider-response,2779,5d8cd4be7bd5180017d887a3,conJudg,45,FL,wug,match,h,2.1,5,wug,2,high,wug,purple
1075,q3zadoj47e,633,image-slider-response,2047,5e47ad846c3d4425c60ccbe5,conJudg,100,FL,wug,match,h,2.1,5,wug,2,high,wug,purple
1075,pbt3n7l1gj,703,image-slider-response,1849,5f63d70e4e460f141abccbc1,conJudg,-55,FL,wug,match,h,2.1,5,wug,2,high,wug,purple
1075,xu8vthdm2k,617,image-slider-response,2142,5f85eb74d99dd00d735c107f,conJudg,100,FL,wug,match,h,2.1,5,wug,2,high,wug,purple
1075,8706z1pc24,687,image-slider-response,1639,5c916456ec114b0016418dca,conJudg,74,LF,wug,match,h,2.1,5,wug,2,high,wug,purple
1075,j07stgzsr2,613,image-slider-response,2881,5d77c0eb4a666c0019561a80,conJudg,100,FL,wug,match,h,2.1,5,wug,2,high,wug,purple
1075,9q76krfydn,689,image-slider-response,1615,5f3d9a9f10a5f219cfe0b404,conJudg,-53,FL,wug,match,h,2.1,5,wug,2,high,wug,purple
1075,r4145wj5y7,681,image-slider-response,3404,5f78b0e3b43f410c88d3af45,conJudg,98,LF,wug,match,h,2.1,5,wug,2,high,wug,purple
1075,jlov66vr8s,677,image-slider-response,2491,5fc65eb000091528ea745f65,conJudg,100,FL,wug,match,h,2.1,5,wug,2,high,wug,purple
1075,o0xz7vf2yt,615,image-slider-response,3259,5f2b196c0c610f4ec3eb5451,conJudg,100,LF,wug,match,h,2.1,5,wug,2,high,wug,purple
1075,hcnkaylepg,701,image-slider-response,2800,5ce8ebe9c9379d0019898681,conJudg,51,FL,wug,match,h,2.1,5,wug,2,high,wug,purple
1075,ym6cxam2f3,675,image-slider-response,1799,5ee87dba82ed8101333c7744,conJudg,100,FL,wug,match,h,2.1,5,wug,2,high,wug,purple
1075,dn0e1jm7ff,605,image-slider-response,4190,5e0cf83bc12a3649f4c9ee92,conJudg,100,LF,wug,match,h,2.1,5,wug,2,high,wug,purple
1075,fggxxfkvfo,719,image-slider-response,625,5fbfb86436a5de31c546f37b,conJudg,0,LF,wug,match,h,2.1,5,wug,2,high,wug,purple
1075,b00qxzsc7o,625,image-slider-response,2771,5ffc250201d8312c325a16a5,conJudg,100,FL,wug,match,h,2.1,5,wug,2,high,wug,purple
1075,rhglzajksw,653,image-slider-response,2958,5ea98f445ef6ee093f4f05ec,conJudg,65,FL,wug,match,h,2.1,5,wug,2,high,wug,purple
1075,cpd84kvzmq,631,image-slider-response,6347,5ed63a6d50ece703aa7bffb9,conJudg,100,FL,wug,match,h,2.1,5,wug,2,high,wug,purple
1075,t2ubvm70lv,715,image-slider-response,5972,5f858743256d25036d9fa693,conJudg,100,LF,wug,match,h,2.1,5,wug,2,high,wug,purple
1075,kfhtlqkth4,639,image-slider-response,4178,5edf8803c008532459792282,conJudg,37,FL,wug,match,h,2.1,5,wug,2,high,wug,purple
1075,6j0z0b0c72,687,image-slider-response,2559,5ea44104a980d23d4f21f7ad,conJudg,88,LF,wug,match,h,2.1,5,wug,2,high,wug,purple
1075,daqg5rc8xw,669,image-slider-response,4357,5eadc934201643479a185e59,conJudg,85,LF,wug,match,h,2.1,5,wug,2,high,wug,purple
1075,5g2fbehb04,629,image-slider-response,1672,591a1f4800a5650001276188,conJudg,100,FL,wug,match,h,2.1,5,wug,2,high,wug,purple
1075,s52728tqhv,687,image-slider-response,4091,6014777b8a88c449408352c5,conJudg,94,LF,wug,match,h,2.1,5,wug,2,high,wug,purple
1075,v9kdh4rpsp,659,image-slider-response,2967,5ed14691e983f5067842fd20,conJudg,100,LF,wug,match,h,2.1,5,wug,2,high,wug,purple
1075,o7w146d4yj,641,image-slider-response,4775,5f343de4d0c07630b7f90b92,conJudg,100,LF,wug,match,h,2.1,5,wug,2,high,wug,purple
1075,gqq2p40hu9,681,image-slider-response,NA,5d41aa9ec61bc300012c73f6,conJudg,NA,LF,wug,match,h,2.1,5,wug,2,high,wug,purple
1075,1e9hhup9lf,661,image-slider-response,2385,5cbc680bfb8dfe0001839ba2,conJudg,-85,LF,wug,match,h,2.1,5,wug,2,high,wug,purple
1075,e4msx463h0,653,image-slider-response,2134,5f1f04c1604e3508877cf62a,conJudg,73,FL,wug,match,h,2.1,5,wug,2,high,wug,purple
1075,lpb8r8jcs5,679,image-slider-response,2535,5dc1e79c880a2915309a8ee3,conJudg,100,LF,wug,match,h,2.1,5,wug,2,high,wug,purple
1075,9x75jv8vpf,717,image-slider-response,1547,5f34cb60fa6cf63ecf31902d,conJudg,93,FL,wug,match,h,2.1,5,wug,2,high,wug,purple
1075,wod6ma11s3,607,image-slider-response,2870,5f8228f40afba53534e6f583,conJudg,100,FL,wug,match,h,2.1,5,wug,2,high,wug,purple
1075,5urksolxqo,667,image-slider-response,3867,5d10fe33fbbf3d001a56d936,conJudg,67,LF,wug,match,h,2.1,5,wug,2,high,wug,purple
1075,4xwhpmkg0h,679,image-slider-response,3606,5ef12a14ab53a21a9012b389,conJudg,98,FL,wug,match,h,2.1,5,wug,2,high,wug,purple
1075,w2brxm7ay2,633,image-slider-response,2510,5f60713e595007000a8e1da7,conJudg,100,FL,wug,match,h,2.1,5,wug,2,high,wug,purple
1075,cjpw7y8c1k,685,image-slider-response,2249,5efdc12f5d69f622915a97a1,conJudg,100,LF,wug,match,h,2.1,5,wug,2,high,wug,purple
1075,t5ex7zbfo2,715,image-slider-response,2364,5fd7ee02c0a4610ea7d258b4,conJudg,100,LF,wug,match,h,2.1,5,wug,2,high,wug,purple
1075,ssktzegauz,641,image-slider-response,2552,5edba672293f3b028b70eb25,conJudg,100,LF,wug,match,h,2.1,5,wug,2,high,wug,purple
1075,ol68ft1h8h,699,image-slider-response,1823,5e5e17c97593e912e086c640,conJudg,81,FL,wug,match,h,2.1,5,wug,2,high,wug,purple
1075,163k2z1uov,627,image-slider-response,2627,5f11ccbc1a1a2c08b4a99efb,conJudg,-59,LF,wug,match,h,2.1,5,wug,2,high,wug,purple
1075,xtbpfv8d5p,661,image-slider-response,2195,5fbade0c4594d6b7c7d96ca9,conJudg,100,FL,wug,match,h,2.1,5,wug,2,high,wug,purple
1075,uyc3tp4v50,605,image-slider-response,2672,6017d6a23bdebea5e9062e9d,conJudg,100,FL,wug,match,h,2.1,5,wug,2,high,wug,purple
1075,ufb4y7bj2f,629,image-slider-response,2265,5c2ce112f422870001fcab1f,conJudg,68,FL,wug,match,h,2.1,5,wug,2,high,wug,purple
1075,jfuskuq35s,697,image-slider-response,2446,5f50e3d60305bb088998b766,conJudg,81,LF,wug,match,h,2.1,5,wug,2,high,wug,purple
1075,jxvpkh0u3z,695,image-slider-response,1835,5fd74512393436000a1a7323,conJudg,100,FL,wug,match,h,2.1,5,wug,2,high,wug,purple
1075,gcrz58pdx0,657,image-slider-response,5213,5f9b106e21189e2d3b853846,conJudg,100,LF,wug,match,h,2.1,5,wug,2,high,wug,purple
1075,f9gvt2ubve,613,image-slider-response,3503,5f529cd9e0a90c58773ec3fe,conJudg,100,LF,wug,match,h,2.1,5,wug,2,high,wug,purple
1075,aj9q5o0gf2,655,image-slider-response,4411,5b01e69aa496b300013d5b9b,conJudg,100,FL,wug,match,h,2.1,5,wug,2,high,wug,purple
1075,ker7u0dhxt,661,image-slider-response,1517,5c87d68fe5bc060001ee8498,conJudg,0,FL,wug,match,h,2.1,5,wug,2,high,wug,purple
1075,x8lrz32hbv,661,image-slider-response,3654,5e7b899a6b890e0659e5e82e,conJudg,100,FL,wug,match,h,2.1,5,wug,2,high,wug,purple
1075,2n2kv71sum,715,image-slider-response,2320,5e67d9ed33e6a60542f4dfd7,conJudg,100,LF,wug,match,h,2.1,5,wug,2,high,wug,purple
1075,z4xhznw88z,607,image-slider-response,3440,5fae68d5b74c182cacbe5d6a,conJudg,100,LF,wug,match,h,2.1,5,wug,2,high,wug,purple
1075,oqwgn1zhn1,709,image-slider-response,2156,5eb5cb8ddef42c4ad1456dd9,conJudg,100,FL,wug,match,h,2.1,5,wug,2,high,wug,purple
1075,s0xp76sxy4,607,image-slider-response,7150,5f68a907efe6b000080540be,conJudg,76,LF,wug,match,h,2.1,5,wug,2,high,wug,purple
1075,sxbrz00bs5,627,image-slider-response,2845,5ee7335388010f4c1b6bbdc2,conJudg,100,LF,wug,match,h,2.1,5,wug,2,high,wug,purple
1075,psp3bt1vuy,663,image-slider-response,3246,5933d3c4ed2e9a0001d37ab4,conJudg,78,FL,wug,match,h,2.1,5,wug,2,high,wug,purple
1075,qnx5xathwg,649,image-slider-response,2396,5cc7f4b3854fb30001d0c13a,conJudg,26,LF,wug,match,h,2.1,5,wug,2,high,wug,purple
1075,e9dxj57s6l,697,image-slider-response,2471,5eb58476f88d4008fa483809,conJudg,36,FL,wug,match,h,2.1,5,wug,2,high,wug,purple
1075,ffbjr4pqha,683,image-slider-response,2196,6009c27b9e9b700266fd52b5,conJudg,0,FL,wug,match,h,2.1,5,wug,2,high,wug,purple
1125,hcnkaylepg,605,image-slider-response,4428,5ce8ebe9c9379d0019898681,conJudg,-77,FL,dep,match,l,3.2,1,dep,3,low,dep,red
1125,163k2z1uov,655,image-slider-response,3265,5f11ccbc1a1a2c08b4a99efb,conJudg,21,LF,dep,match,l,3.2,1,dep,3,low,dep,red
1125,8706z1pc24,677,image-slider-response,1955,5c916456ec114b0016418dca,conJudg,-81,LF,dep,match,l,3.2,1,dep,3,low,dep,red
1125,4xwhpmkg0h,687,image-slider-response,2093,5ef12a14ab53a21a9012b389,conJudg,69,FL,dep,match,l,3.2,1,dep,3,low,dep,red
1125,ssktzegauz,709,image-slider-response,3432,5edba672293f3b028b70eb25,conJudg,-100,LF,dep,match,l,3.2,1,dep,3,low,dep,red
1125,38cgqt2jvy,713,image-slider-response,4344,5f83138efa73fa44e23c5237,conJudg,56,FL,dep,match,l,3.2,1,dep,3,low,dep,red
1125,d1c4anqfzp,709,image-slider-response,3403,5c5d6b55b7ce2100011fa04e,conJudg,-100,FL,dep,match,l,3.2,1,dep,3,low,dep,red
1125,ek1v85vere,629,image-slider-response,NA,5bdcd99964215c0001282b34,conJudg,NA,LF,dep,match,l,3.2,1,dep,3,low,dep,red
1125,ym6cxam2f3,637,image-slider-response,3712,5ee87dba82ed8101333c7744,conJudg,-100,FL,dep,match,l,3.2,1,dep,3,low,dep,red
1125,s0xp76sxy4,655,image-slider-response,2220,5f68a907efe6b000080540be,conJudg,0,LF,dep,match,l,3.2,1,dep,3,low,dep,red
1125,1gynr5ywqp,719,image-slider-response,1978,5db1bba0e20f58000b8717f6,conJudg,-79,FL,dep,match,l,3.2,1,dep,3,low,dep,red
1125,t8qovvqyjq,635,image-slider-response,4453,5f89cbc45b38f5016101011c,conJudg,100,FL,dep,match,l,3.2,1,dep,3,low,dep,red
1125,jxvpkh0u3z,603,image-slider-response,3253,5fd74512393436000a1a7323,conJudg,-100,FL,dep,match,l,3.2,1,dep,3,low,dep,red
1125,mus0v446tm,613,image-slider-response,3429,5f8dda4538ed0614d9ac476b,conJudg,-61,LF,dep,match,l,3.2,1,dep,3,low,dep,red
1125,pmz1eqhg0u,667,image-slider-response,4300,5f1bfe98441e2743f34fa16a,conJudg,-44,LF,dep,match,l,3.2,1,dep,3,low,dep,red
1125,3mctt6t3lt,681,image-slider-response,1667,5b3cb17b6779080001fe88c1,conJudg,-100,FL,dep,match,l,3.2,1,dep,3,low,dep,red
1125,9y1b9uh65r,607,image-slider-response,1846,5daca079bf590700167f704d,conJudg,-40,LF,dep,match,l,3.2,1,dep,3,low,dep,red
1125,f9gvt2ubve,707,image-slider-response,4904,5f529cd9e0a90c58773ec3fe,conJudg,0,LF,dep,match,l,3.2,1,dep,3,low,dep,red
1125,9x75jv8vpf,675,image-slider-response,4037,5f34cb60fa6cf63ecf31902d,conJudg,23,FL,dep,match,l,3.2,1,dep,3,low,dep,red
1125,x8lrz32hbv,679,image-slider-response,3952,5e7b899a6b890e0659e5e82e,conJudg,-53,FL,dep,match,l,3.2,1,dep,3,low,dep,red
1125,j07stgzsr2,687,image-slider-response,3707,5d77c0eb4a666c0019561a80,conJudg,-100,FL,dep,match,l,3.2,1,dep,3,low,dep,red
1125,581oqcuhue,607,image-slider-response,3828,6009c2eda21be3026447d80e,conJudg,-100,LF,dep,match,l,3.2,1,dep,3,low,dep,red
1125,67zqwpqc3v,709,image-slider-response,1719,5ea3066769713007dfc5f1c3,conJudg,-53,LF,dep,match,l,3.2,1,dep,3,low,dep,red
1125,4euvjgbfcc,715,image-slider-response,3385,600355394a113e408f54cce5,conJudg,-100,LF,dep,match,l,3.2,1,dep,3,low,dep,red
1125,o7w146d4yj,663,image-slider-response,1625,5f343de4d0c07630b7f90b92,conJudg,15,LF,dep,match,l,3.2,1,dep,3,low,dep,red
1125,jfuskuq35s,713,image-slider-response,2325,5f50e3d60305bb088998b766,conJudg,35,LF,dep,match,l,3.2,1,dep,3,low,dep,red
1125,fggxxfkvfo,623,image-slider-response,3232,5fbfb86436a5de31c546f37b,conJudg,-47,LF,dep,match,l,3.2,1,dep,3,low,dep,red
1125,o0xz7vf2yt,623,image-slider-response,2768,5f2b196c0c610f4ec3eb5451,conJudg,-100,LF,dep,match,l,3.2,1,dep,3,low,dep,red
1125,q3zadoj47e,637,image-slider-response,2370,5e47ad846c3d4425c60ccbe5,conJudg,0,FL,dep,match,l,3.2,1,dep,3,low,dep,red
1125,32gxlbaw1s,645,image-slider-response,2180,5ea2381ad0a4b71481c298e7,conJudg,-100,LF,dep,match,l,3.2,1,dep,3,low,dep,red
1125,r4145wj5y7,687,image-slider-response,3404,5f78b0e3b43f410c88d3af45,conJudg,-71,LF,dep,match,l,3.2,1,dep,3,low,dep,red
1125,gqq2p40hu9,621,image-slider-response,3368,5d41aa9ec61bc300012c73f6,conJudg,-100,LF,dep,match,l,3.2,1,dep,3,low,dep,red
1125,pbt3n7l1gj,613,image-slider-response,2991,5f63d70e4e460f141abccbc1,conJudg,100,FL,dep,match,l,3.2,1,dep,3,low,dep,red
1125,0yjn7eg9zc,705,image-slider-response,2388,5f06ee44c10cab2655ea3822,conJudg,-82,FL,dep,match,l,3.2,1,dep,3,low,dep,red
1125,rhglzajksw,697,image-slider-response,6338,5ea98f445ef6ee093f4f05ec,conJudg,-100,FL,dep,match,l,3.2,1,dep,3,low,dep,red
1125,rl7z98kzoa,639,image-slider-response,2935,5faa8121f8f5533a5c7f7a20,conJudg,100,LF,dep,match,l,3.2,1,dep,3,low,dep,red
1125,3b8h3oor4p,631,image-slider-response,4316,5f61bbe3c18cc915aac68b32,conJudg,17,FL,dep,match,l,3.2,1,dep,3,low,dep,red
1125,5g2fbehb04,655,image-slider-response,2910,591a1f4800a5650001276188,conJudg,-100,FL,dep,match,l,3.2,1,dep,3,low,dep,red
1125,53gv7n4gtu,693,image-slider-response,2241,601fd3cd92f028532a257baf,conJudg,100,LF,dep,match,l,3.2,1,dep,3,low,dep,red
1125,e4msx463h0,681,image-slider-response,2079,5f1f04c1604e3508877cf62a,conJudg,-100,FL,dep,match,l,3.2,1,dep,3,low,dep,red
1125,b576vfvfdd,717,image-slider-response,4054,5ea85cf4ad1f760a537eadfe,conJudg,-77,FL,dep,match,l,3.2,1,dep,3,low,dep,red
1125,daqg5rc8xw,695,image-slider-response,2413,5eadc934201643479a185e59,conJudg,50,LF,dep,match,l,3.2,1,dep,3,low,dep,red
1125,fkw1vwzc6v,629,image-slider-response,2921,5f50d630390521264e606772,conJudg,-98,FL,dep,match,l,3.2,1,dep,3,low,dep,red
1125,98ysefwhzk,707,image-slider-response,2725,5f482f05cd5e5d2d1d57c1ff,conJudg,-100,LF,dep,match,l,3.2,1,dep,3,low,dep,red
1125,71bdswcm9k,659,image-slider-response,4627,5f591a5a9a49e211efead835,conJudg,27,LF,dep,match,l,3.2,1,dep,3,low,dep,red
1125,xu8vthdm2k,651,image-slider-response,2081,5f85eb74d99dd00d735c107f,conJudg,56,FL,dep,match,l,3.2,1,dep,3,low,dep,red
1125,d1snyw7jw6,625,image-slider-response,2765,5fc13b486833fb13fef1720b,conJudg,-100,LF,dep,match,l,3.2,1,dep,3,low,dep,red
1125,g8ez0w4wvj,633,image-slider-response,1251,5ec32348079dcc17451cac16,conJudg,-100,FL,dep,match,l,3.2,1,dep,3,low,dep,red
1125,wod6ma11s3,669,image-slider-response,2136,5f8228f40afba53534e6f583,conJudg,-52,FL,dep,match,l,3.2,1,dep,3,low,dep,red
1125,e4s1gf870t,683,image-slider-response,2750,5f677b748c011837e12cba61,conJudg,-13,FL,dep,match,l,3.2,1,dep,3,low,dep,red
1125,2n2kv71sum,695,image-slider-response,3915,5e67d9ed33e6a60542f4dfd7,conJudg,0,LF,dep,match,l,3.2,1,dep,3,low,dep,red
1125,xekfnorue1,705,image-slider-response,2786,5a11a7d0f2e3460001edbe35,conJudg,76,FL,dep,match,l,3.2,1,dep,3,low,dep,red
1125,0tf06g8uzp,695,image-slider-response,4219,5b98223fbdb1df0001f1e684,conJudg,52,LF,dep,match,l,3.2,1,dep,3,low,dep,red
1125,vkybhfxevw,663,image-slider-response,2592,5f9d4170f629422451ac7fd8,conJudg,-78,LF,dep,match,l,3.2,1,dep,3,low,dep,red
1125,zq33udleq5,631,image-slider-response,2123,5ec527351fc19046fdd6cd59,conJudg,74,FL,dep,match,l,3.2,1,dep,3,low,dep,red
1125,yj9gmh2tyv,609,image-slider-response,4237,5e8dcc81e6686e035680594e,conJudg,-100,LF,dep,match,l,3.2,1,dep,3,low,dep,red
1125,55ovzw4068,609,image-slider-response,3272,5f830f1644cc14447b03305c,conJudg,-100,FL,dep,match,l,3.2,1,dep,3,low,dep,red
1125,cpd84kvzmq,659,image-slider-response,3900,5ed63a6d50ece703aa7bffb9,conJudg,-100,FL,dep,match,l,3.2,1,dep,3,low,dep,red
1125,8k7ujzqkju,681,image-slider-response,2202,5e8b2e599abd417d9512a877,conJudg,-100,LF,dep,match,l,3.2,1,dep,3,low,dep,red
1125,yc8mkz3uaa,699,image-slider-response,2306,5eaeb8b513f83a57d35db285,conJudg,34,LF,dep,match,l,3.2,1,dep,3,low,dep,red
1125,vzebe40w15,679,image-slider-response,4005,5fce9a625474c41129c10fb1,conJudg,0,LF,dep,match,l,3.2,1,dep,3,low,dep,red
1125,ffbjr4pqha,625,image-slider-response,2204,6009c27b9e9b700266fd52b5,conJudg,-100,FL,dep,match,l,3.2,1,dep,3,low,dep,red
1125,s80pnsgly8,697,image-slider-response,2641,5ed09b6985143f000c08b6b8,conJudg,69,FL,dep,match,l,3.2,1,dep,3,low,dep,red
1125,s52728tqhv,629,image-slider-response,3908,6014777b8a88c449408352c5,conJudg,-97,LF,dep,match,l,3.2,1,dep,3,low,dep,red
1125,qfloq0vkd1,681,image-slider-response,1965,5acb896da3ba7a0001b4e99f,conJudg,-49,LF,dep,match,l,3.2,1,dep,3,low,dep,red
1125,e72zvev590,629,image-slider-response,2442,5e6617541d7e1a3885c45e85,conJudg,-100,FL,dep,match,l,3.2,1,dep,3,low,dep,red
1125,t2ubvm70lv,665,image-slider-response,4423,5f858743256d25036d9fa693,conJudg,4,LF,dep,match,l,3.2,1,dep,3,low,dep,red
1125,gcrz58pdx0,641,image-slider-response,3812,5f9b106e21189e2d3b853846,conJudg,-100,LF,dep,match,l,3.2,1,dep,3,low,dep,red
1125,f208my9c1t,697,image-slider-response,3981,5d920df12b679a00182bbc73,conJudg,-70,LF,dep,match,l,3.2,1,dep,3,low,dep,red
1125,zt96waez4c,633,image-slider-response,1528,5daca66b71a51b00113172ce,conJudg,44,LF,dep,match,l,3.2,1,dep,3,low,dep,red
1125,5qj7var04h,627,image-slider-response,3561,5f4f835cea1e870397a4d295,conJudg,40,LF,dep,match,l,3.2,1,dep,3,low,dep,red
1125,371addqx7x,623,image-slider-response,6120,5d8cd4be7bd5180017d887a3,conJudg,24,FL,dep,match,l,3.2,1,dep,3,low,dep,red
1125,jlov66vr8s,637,image-slider-response,5121,5fc65eb000091528ea745f65,conJudg,-79,FL,dep,match,l,3.2,1,dep,3,low,dep,red
1125,ufb4y7bj2f,633,image-slider-response,1825,5c2ce112f422870001fcab1f,conJudg,-86,FL,dep,match,l,3.2,1,dep,3,low,dep,red
1125,ol68ft1h8h,613,image-slider-response,2711,5e5e17c97593e912e086c640,conJudg,-64,FL,dep,match,l,3.2,1,dep,3,low,dep,red
1125,t5ex7zbfo2,609,image-slider-response,1598,5fd7ee02c0a4610ea7d258b4,conJudg,-100,LF,dep,match,l,3.2,1,dep,3,low,dep,red
1125,kyb3lzn0xx,611,image-slider-response,1452,5ee9cbbbdcf662000932fb78,conJudg,-100,LF,dep,match,l,3.2,1,dep,3,low,dep,red
1125,sxbrz00bs5,683,image-slider-response,3010,5ee7335388010f4c1b6bbdc2,conJudg,-71,LF,dep,match,l,3.2,1,dep,3,low,dep,red
1125,b00qxzsc7o,655,image-slider-response,3530,5ffc250201d8312c325a16a5,conJudg,-100,FL,dep,match,l,3.2,1,dep,3,low,dep,red
1125,pusqm5jv5t,699,image-slider-response,2056,5f477a85d919ec03cadfaddd,conJudg,45,FL,dep,match,l,3.2,1,dep,3,low,dep,red
1125,5urksolxqo,635,image-slider-response,4956,5d10fe33fbbf3d001a56d936,conJudg,67,LF,dep,match,l,3.2,1,dep,3,low,dep,red
1125,aj9q5o0gf2,627,image-slider-response,4097,5b01e69aa496b300013d5b9b,conJudg,9,FL,dep,match,l,3.2,1,dep,3,low,dep,red
1125,823tgxfuz7,677,image-slider-response,3628,5f632ea32e85353d93872c67,conJudg,-90,LF,dep,match,l,3.2,1,dep,3,low,dep,red
1125,yhakp9pfe9,715,image-slider-response,5331,5f57a42b46df8927414990fc,conJudg,-94,LF,dep,match,l,3.2,1,dep,3,low,dep,red
1125,qnx5xathwg,673,image-slider-response,2915,5cc7f4b3854fb30001d0c13a,conJudg,71,LF,dep,match,l,3.2,1,dep,3,low,dep,red
1125,w2brxm7ay2,657,image-slider-response,6884,5f60713e595007000a8e1da7,conJudg,-17,FL,dep,match,l,3.2,1,dep,3,low,dep,red
1125,uyc3tp4v50,619,image-slider-response,1669,6017d6a23bdebea5e9062e9d,conJudg,100,FL,dep,match,l,3.2,1,dep,3,low,dep,red
1125,1e9hhup9lf,685,image-slider-response,1474,5cbc680bfb8dfe0001839ba2,conJudg,23,LF,dep,match,l,3.2,1,dep,3,low,dep,red
1125,mvqchu948c,717,image-slider-response,3089,5b421b9ac2e3810001763252,conJudg,27,FL,dep,match,l,3.2,1,dep,3,low,dep,red
1125,kfhtlqkth4,693,image-slider-response,2045,5edf8803c008532459792282,conJudg,-39,FL,dep,match,l,3.2,1,dep,3,low,dep,red
1125,3a2waojqmg,677,image-slider-response,2584,5e6a2c7c5b057b08e930e89d,conJudg,-52,FL,dep,match,l,3.2,1,dep,3,low,dep,red
1125,9q76krfydn,617,image-slider-response,2113,5f3d9a9f10a5f219cfe0b404,conJudg,-38,FL,dep,match,l,3.2,1,dep,3,low,dep,red
1125,y20qp8dcxo,691,image-slider-response,1561,5f578563765fec223eb51594,conJudg,0,LF,dep,match,l,3.2,1,dep,3,low,dep,red
1125,lpb8r8jcs5,629,image-slider-response,2680,5dc1e79c880a2915309a8ee3,conJudg,28,LF,dep,match,l,3.2,1,dep,3,low,dep,red
1125,xtbpfv8d5p,641,image-slider-response,1815,5fbade0c4594d6b7c7d96ca9,conJudg,-100,FL,dep,match,l,3.2,1,dep,3,low,dep,red
1125,ker7u0dhxt,623,image-slider-response,1218,5c87d68fe5bc060001ee8498,conJudg,0,FL,dep,match,l,3.2,1,dep,3,low,dep,red
1125,hc4uh4u04h,703,image-slider-response,2401,5f5d6c3cbacc025bf0a03440,conJudg,47,FL,dep,match,l,3.2,1,dep,3,low,dep,red
1125,cjpw7y8c1k,613,image-slider-response,2483,5efdc12f5d69f622915a97a1,conJudg,-100,LF,dep,match,l,3.2,1,dep,3,low,dep,red
1125,oqwgn1zhn1,647,image-slider-response,2170,5eb5cb8ddef42c4ad1456dd9,conJudg,-100,FL,dep,match,l,3.2,1,dep,3,low,dep,red
1125,6j0z0b0c72,701,image-slider-response,2245,5ea44104a980d23d4f21f7ad,conJudg,-96,LF,dep,match,l,3.2,1,dep,3,low,dep,red
1125,85gul0f7qh,665,image-slider-response,3969,5e4ab1b4ca765d000edebd15,conJudg,-100,LF,dep,match,l,3.2,1,dep,3,low,dep,red
1125,nsqbzarmrc,659,image-slider-response,2429,601e9d81606b8d337ab338e4,conJudg,-100,FL,dep,match,l,3.2,1,dep,3,low,dep,red
1125,z4xhznw88z,643,image-slider-response,2930,5fae68d5b74c182cacbe5d6a,conJudg,28,LF,dep,match,l,3.2,1,dep,3,low,dep,red
1125,psp3bt1vuy,653,image-slider-response,606,5933d3c4ed2e9a0001d37ab4,conJudg,0,FL,dep,match,l,3.2,1,dep,3,low,dep,red
1125,v9kdh4rpsp,673,image-slider-response,2379,5ed14691e983f5067842fd20,conJudg,100,LF,dep,match,l,3.2,1,dep,3,low,dep,red
1125,dn0e1jm7ff,661,image-slider-response,2093,5e0cf83bc12a3649f4c9ee92,conJudg,-100,LF,dep,match,l,3.2,1,dep,3,low,dep,red
1125,e9dxj57s6l,685,image-slider-response,4030,5eb58476f88d4008fa483809,conJudg,-36,FL,dep,match,l,3.2,1,dep,3,low,dep,red
1125,q963ed16o4,647,image-slider-response,5525,6006cf1238099707863fc7b4,conJudg,-83,FL,dep,match,l,3.2,1,dep,3,low,dep,red
1175,rhglzajksw,711,image-slider-response,2664,5ea98f445ef6ee093f4f05ec,conJudg,100,FL,dep,match,h,3.1,1,dep,3,high,dep,blue
1175,uyc3tp4v50,669,image-slider-response,2014,6017d6a23bdebea5e9062e9d,conJudg,100,FL,dep,match,h,3.1,1,dep,3,high,dep,blue
1175,5g2fbehb04,689,image-slider-response,1788,591a1f4800a5650001276188,conJudg,100,FL,dep,match,h,3.1,1,dep,3,high,dep,blue
1175,32gxlbaw1s,669,image-slider-response,1824,5ea2381ad0a4b71481c298e7,conJudg,100,LF,dep,match,h,3.1,1,dep,3,high,dep,blue
1175,hcnkaylepg,711,image-slider-response,5063,5ce8ebe9c9379d0019898681,conJudg,78,FL,dep,match,h,3.1,1,dep,3,high,dep,blue
1175,pusqm5jv5t,613,image-slider-response,5575,5f477a85d919ec03cadfaddd,conJudg,66,FL,dep,match,h,3.1,1,dep,3,high,dep,blue
1175,lpb8r8jcs5,655,image-slider-response,7418,5dc1e79c880a2915309a8ee3,conJudg,100,LF,dep,match,h,3.1,1,dep,3,high,dep,blue
1175,e4msx463h0,619,image-slider-response,2418,5f1f04c1604e3508877cf62a,conJudg,88,FL,dep,match,h,3.1,1,dep,3,high,dep,blue
1175,j07stgzsr2,635,image-slider-response,2086,5d77c0eb4a666c0019561a80,conJudg,100,FL,dep,match,h,3.1,1,dep,3,high,dep,blue
1175,s52728tqhv,709,image-slider-response,NA,6014777b8a88c449408352c5,conJudg,NA,LF,dep,match,h,3.1,1,dep,3,high,dep,blue
1175,rl7z98kzoa,659,image-slider-response,4367,5faa8121f8f5533a5c7f7a20,conJudg,-100,LF,dep,match,h,3.1,1,dep,3,high,dep,blue
1175,1e9hhup9lf,615,image-slider-response,1758,5cbc680bfb8dfe0001839ba2,conJudg,44,LF,dep,match,h,3.1,1,dep,3,high,dep,blue
1175,mvqchu948c,645,image-slider-response,3095,5b421b9ac2e3810001763252,conJudg,33,FL,dep,match,h,3.1,1,dep,3,high,dep,blue
1175,ker7u0dhxt,695,image-slider-response,1438,5c87d68fe5bc060001ee8498,conJudg,0,FL,dep,match,h,3.1,1,dep,3,high,dep,blue
1175,qnx5xathwg,721,image-slider-response,2156,5cc7f4b3854fb30001d0c13a,conJudg,-33,LF,dep,match,h,3.1,1,dep,3,high,dep,blue
1175,gcrz58pdx0,707,image-slider-response,5650,5f9b106e21189e2d3b853846,conJudg,-100,LF,dep,match,h,3.1,1,dep,3,high,dep,blue
1175,2n2kv71sum,621,image-slider-response,2567,5e67d9ed33e6a60542f4dfd7,conJudg,41,LF,dep,match,h,3.1,1,dep,3,high,dep,blue
1175,jfuskuq35s,627,image-slider-response,2766,5f50e3d60305bb088998b766,conJudg,31,LF,dep,match,h,3.1,1,dep,3,high,dep,blue
1175,4euvjgbfcc,615,image-slider-response,3731,600355394a113e408f54cce5,conJudg,21,LF,dep,match,h,3.1,1,dep,3,high,dep,blue
1175,vzebe40w15,687,image-slider-response,7221,5fce9a625474c41129c10fb1,conJudg,0,LF,dep,match,h,3.1,1,dep,3,high,dep,blue
1175,r4145wj5y7,659,image-slider-response,3271,5f78b0e3b43f410c88d3af45,conJudg,74,LF,dep,match,h,3.1,1,dep,3,high,dep,blue
1175,o7w146d4yj,609,image-slider-response,2345,5f343de4d0c07630b7f90b92,conJudg,100,LF,dep,match,h,3.1,1,dep,3,high,dep,blue
1175,oqwgn1zhn1,711,image-slider-response,2712,5eb5cb8ddef42c4ad1456dd9,conJudg,87,FL,dep,match,h,3.1,1,dep,3,high,dep,blue
1175,f208my9c1t,635,image-slider-response,3859,5d920df12b679a00182bbc73,conJudg,72,LF,dep,match,h,3.1,1,dep,3,high,dep,blue
1175,v9kdh4rpsp,635,image-slider-response,2302,5ed14691e983f5067842fd20,conJudg,-100,LF,dep,match,h,3.1,1,dep,3,high,dep,blue
1175,85gul0f7qh,657,image-slider-response,2383,5e4ab1b4ca765d000edebd15,conJudg,100,LF,dep,match,h,3.1,1,dep,3,high,dep,blue
1175,vkybhfxevw,617,image-slider-response,3428,5f9d4170f629422451ac7fd8,conJudg,100,LF,dep,match,h,3.1,1,dep,3,high,dep,blue
1175,5qj7var04h,707,image-slider-response,4601,5f4f835cea1e870397a4d295,conJudg,-51,LF,dep,match,h,3.1,1,dep,3,high,dep,blue
1175,zt96waez4c,637,image-slider-response,1517,5daca66b71a51b00113172ce,conJudg,-39,LF,dep,match,h,3.1,1,dep,3,high,dep,blue
1175,fggxxfkvfo,611,image-slider-response,3763,5fbfb86436a5de31c546f37b,conJudg,29,LF,dep,match,h,3.1,1,dep,3,high,dep,blue
1175,q963ed16o4,721,image-slider-response,2296,6006cf1238099707863fc7b4,conJudg,100,FL,dep,match,h,3.1,1,dep,3,high,dep,blue
1175,581oqcuhue,689,image-slider-response,6704,6009c2eda21be3026447d80e,conJudg,68,LF,dep,match,h,3.1,1,dep,3,high,dep,blue
1175,ssktzegauz,657,image-slider-response,2165,5edba672293f3b028b70eb25,conJudg,100,LF,dep,match,h,3.1,1,dep,3,high,dep,blue
1175,w2brxm7ay2,643,image-slider-response,3094,5f60713e595007000a8e1da7,conJudg,32,FL,dep,match,h,3.1,1,dep,3,high,dep,blue
1175,hc4uh4u04h,689,image-slider-response,2626,5f5d6c3cbacc025bf0a03440,conJudg,35,FL,dep,match,h,3.1,1,dep,3,high,dep,blue
1175,q3zadoj47e,603,image-slider-response,3590,5e47ad846c3d4425c60ccbe5,conJudg,100,FL,dep,match,h,3.1,1,dep,3,high,dep,blue
1175,xtbpfv8d5p,715,image-slider-response,1531,5fbade0c4594d6b7c7d96ca9,conJudg,100,FL,dep,match,h,3.1,1,dep,3,high,dep,blue
1175,kfhtlqkth4,665,image-slider-response,7587,5edf8803c008532459792282,conJudg,11,FL,dep,match,h,3.1,1,dep,3,high,dep,blue
1175,0tf06g8uzp,607,image-slider-response,3701,5b98223fbdb1df0001f1e684,conJudg,100,LF,dep,match,h,3.1,1,dep,3,high,dep,blue
1175,9y1b9uh65r,701,image-slider-response,2595,5daca079bf590700167f704d,conJudg,-36,LF,dep,match,h,3.1,1,dep,3,high,dep,blue
1175,g8ez0w4wvj,635,image-slider-response,1692,5ec32348079dcc17451cac16,conJudg,59,FL,dep,match,h,3.1,1,dep,3,high,dep,blue
1175,t2ubvm70lv,695,image-slider-response,2136,5f858743256d25036d9fa693,conJudg,-100,LF,dep,match,h,3.1,1,dep,3,high,dep,blue
1175,zq33udleq5,659,image-slider-response,2589,5ec527351fc19046fdd6cd59,conJudg,-55,FL,dep,match,h,3.1,1,dep,3,high,dep,blue
1175,nsqbzarmrc,713,image-slider-response,4837,601e9d81606b8d337ab338e4,conJudg,100,FL,dep,match,h,3.1,1,dep,3,high,dep,blue
1175,71bdswcm9k,707,image-slider-response,2266,5f591a5a9a49e211efead835,conJudg,100,LF,dep,match,h,3.1,1,dep,3,high,dep,blue
1175,daqg5rc8xw,613,image-slider-response,3804,5eadc934201643479a185e59,conJudg,40,LF,dep,match,h,3.1,1,dep,3,high,dep,blue
1175,371addqx7x,649,image-slider-response,2846,5d8cd4be7bd5180017d887a3,conJudg,0,FL,dep,match,h,3.1,1,dep,3,high,dep,blue
1175,38cgqt2jvy,711,image-slider-response,3290,5f83138efa73fa44e23c5237,conJudg,59,FL,dep,match,h,3.1,1,dep,3,high,dep,blue
1175,yhakp9pfe9,663,image-slider-response,5037,5f57a42b46df8927414990fc,conJudg,98,LF,dep,match,h,3.1,1,dep,3,high,dep,blue
1175,pmz1eqhg0u,617,image-slider-response,4054,5f1bfe98441e2743f34fa16a,conJudg,45,LF,dep,match,h,3.1,1,dep,3,high,dep,blue
1175,ek1v85vere,621,image-slider-response,4142,5bdcd99964215c0001282b34,conJudg,100,LF,dep,match,h,3.1,1,dep,3,high,dep,blue
1175,0yjn7eg9zc,629,image-slider-response,3461,5f06ee44c10cab2655ea3822,conJudg,-46,FL,dep,match,h,3.1,1,dep,3,high,dep,blue
1175,e4s1gf870t,605,image-slider-response,4006,5f677b748c011837e12cba61,conJudg,19,FL,dep,match,h,3.1,1,dep,3,high,dep,blue
1175,fkw1vwzc6v,613,image-slider-response,2871,5f50d630390521264e606772,conJudg,100,FL,dep,match,h,3.1,1,dep,3,high,dep,blue
1175,3mctt6t3lt,699,image-slider-response,1947,5b3cb17b6779080001fe88c1,conJudg,100,FL,dep,match,h,3.1,1,dep,3,high,dep,blue
1175,jxvpkh0u3z,705,image-slider-response,1620,5fd74512393436000a1a7323,conJudg,100,FL,dep,match,h,3.1,1,dep,3,high,dep,blue
1175,98ysefwhzk,683,image-slider-response,2627,5f482f05cd5e5d2d1d57c1ff,conJudg,100,LF,dep,match,h,3.1,1,dep,3,high,dep,blue
1175,yc8mkz3uaa,689,image-slider-response,1620,5eaeb8b513f83a57d35db285,conJudg,93,LF,dep,match,h,3.1,1,dep,3,high,dep,blue
1175,xekfnorue1,659,image-slider-response,1774,5a11a7d0f2e3460001edbe35,conJudg,-82,FL,dep,match,h,3.1,1,dep,3,high,dep,blue
1175,mus0v446tm,617,image-slider-response,2985,5f8dda4538ed0614d9ac476b,conJudg,53,LF,dep,match,h,3.1,1,dep,3,high,dep,blue
1175,s80pnsgly8,615,image-slider-response,3809,5ed09b6985143f000c08b6b8,conJudg,66,FL,dep,match,h,3.1,1,dep,3,high,dep,blue
1175,o0xz7vf2yt,717,image-slider-response,2875,5f2b196c0c610f4ec3eb5451,conJudg,17,LF,dep,match,h,3.1,1,dep,3,high,dep,blue
1175,4xwhpmkg0h,635,image-slider-response,2885,5ef12a14ab53a21a9012b389,conJudg,-53,FL,dep,match,h,3.1,1,dep,3,high,dep,blue
1175,9x75jv8vpf,691,image-slider-response,1652,5f34cb60fa6cf63ecf31902d,conJudg,-71,FL,dep,match,h,3.1,1,dep,3,high,dep,blue
1175,3a2waojqmg,623,image-slider-response,2896,5e6a2c7c5b057b08e930e89d,conJudg,-19,FL,dep,match,h,3.1,1,dep,3,high,dep,blue
1175,8k7ujzqkju,607,image-slider-response,4091,5e8b2e599abd417d9512a877,conJudg,100,LF,dep,match,h,3.1,1,dep,3,high,dep,blue
1175,e72zvev590,671,image-slider-response,1196,5e6617541d7e1a3885c45e85,conJudg,0,FL,dep,match,h,3.1,1,dep,3,high,dep,blue
1175,3b8h3oor4p,717,image-slider-response,2286,5f61bbe3c18cc915aac68b32,conJudg,100,FL,dep,match,h,3.1,1,dep,3,high,dep,blue
1175,55ovzw4068,715,image-slider-response,2451,5f830f1644cc14447b03305c,conJudg,44,FL,dep,match,h,3.1,1,dep,3,high,dep,blue
1175,z4xhznw88z,639,image-slider-response,3553,5fae68d5b74c182cacbe5d6a,conJudg,100,LF,dep,match,h,3.1,1,dep,3,high,dep,blue
1175,psp3bt1vuy,643,image-slider-response,780,5933d3c4ed2e9a0001d37ab4,conJudg,0,FL,dep,match,h,3.1,1,dep,3,high,dep,blue
1175,d1c4anqfzp,603,image-slider-response,5343,5c5d6b55b7ce2100011fa04e,conJudg,100,FL,dep,match,h,3.1,1,dep,3,high,dep,blue
1175,aj9q5o0gf2,663,image-slider-response,4234,5b01e69aa496b300013d5b9b,conJudg,25,FL,dep,match,h,3.1,1,dep,3,high,dep,blue
1175,xu8vthdm2k,673,image-slider-response,2854,5f85eb74d99dd00d735c107f,conJudg,81,FL,dep,match,h,3.1,1,dep,3,high,dep,blue
1175,dn0e1jm7ff,717,image-slider-response,3782,5e0cf83bc12a3649f4c9ee92,conJudg,35,LF,dep,match,h,3.1,1,dep,3,high,dep,blue
1175,53gv7n4gtu,683,image-slider-response,1798,601fd3cd92f028532a257baf,conJudg,-62,LF,dep,match,h,3.1,1,dep,3,high,dep,blue
1175,8706z1pc24,713,image-slider-response,2168,5c916456ec114b0016418dca,conJudg,68,LF,dep,match,h,3.1,1,dep,3,high,dep,blue
1175,y20qp8dcxo,665,image-slider-response,2712,5f578563765fec223eb51594,conJudg,100,LF,dep,match,h,3.1,1,dep,3,high,dep,blue
1175,x8lrz32hbv,697,image-slider-response,1523,5e7b899a6b890e0659e5e82e,conJudg,0,FL,dep,match,h,3.1,1,dep,3,high,dep,blue
1175,5urksolxqo,639,image-slider-response,3364,5d10fe33fbbf3d001a56d936,conJudg,34,LF,dep,match,h,3.1,1,dep,3,high,dep,blue
1175,t5ex7zbfo2,691,image-slider-response,1983,5fd7ee02c0a4610ea7d258b4,conJudg,-50,LF,dep,match,h,3.1,1,dep,3,high,dep,blue
1175,9q76krfydn,695,image-slider-response,2394,5f3d9a9f10a5f219cfe0b404,conJudg,-67,FL,dep,match,h,3.1,1,dep,3,high,dep,blue
1175,t8qovvqyjq,603,image-slider-response,4668,5f89cbc45b38f5016101011c,conJudg,100,FL,dep,match,h,3.1,1,dep,3,high,dep,blue
1175,gqq2p40hu9,607,image-slider-response,4545,5d41aa9ec61bc300012c73f6,conJudg,-33,LF,dep,match,h,3.1,1,dep,3,high,dep,blue
1175,qfloq0vkd1,665,image-slider-response,1804,5acb896da3ba7a0001b4e99f,conJudg,100,LF,dep,match,h,3.1,1,dep,3,high,dep,blue
1175,s0xp76sxy4,605,image-slider-response,5358,5f68a907efe6b000080540be,conJudg,77,LF,dep,match,h,3.1,1,dep,3,high,dep,blue
1175,b576vfvfdd,641,image-slider-response,2526,5ea85cf4ad1f760a537eadfe,conJudg,83,FL,dep,match,h,3.1,1,dep,3,high,dep,blue
1175,ol68ft1h8h,649,image-slider-response,1850,5e5e17c97593e912e086c640,conJudg,-64,FL,dep,match,h,3.1,1,dep,3,high,dep,blue
1175,d1snyw7jw6,619,image-slider-response,2172,5fc13b486833fb13fef1720b,conJudg,100,LF,dep,match,h,3.1,1,dep,3,high,dep,blue
1175,ufb4y7bj2f,675,image-slider-response,1464,5c2ce112f422870001fcab1f,conJudg,-55,FL,dep,match,h,3.1,1,dep,3,high,dep,blue
1175,ffbjr4pqha,615,image-slider-response,2283,6009c27b9e9b700266fd52b5,conJudg,100,FL,dep,match,h,3.1,1,dep,3,high,dep,blue
1175,1gynr5ywqp,675,image-slider-response,2803,5db1bba0e20f58000b8717f6,conJudg,-49,FL,dep,match,h,3.1,1,dep,3,high,dep,blue
1175,cpd84kvzmq,719,image-slider-response,NA,5ed63a6d50ece703aa7bffb9,conJudg,NA,FL,dep,match,h,3.1,1,dep,3,high,dep,blue
1175,ym6cxam2f3,625,image-slider-response,3039,5ee87dba82ed8101333c7744,conJudg,73,FL,dep,match,h,3.1,1,dep,3,high,dep,blue
1175,yj9gmh2tyv,679,image-slider-response,2380,5e8dcc81e6686e035680594e,conJudg,100,LF,dep,match,h,3.1,1,dep,3,high,dep,blue
1175,e9dxj57s6l,631,image-slider-response,3503,5eb58476f88d4008fa483809,conJudg,45,FL,dep,match,h,3.1,1,dep,3,high,dep,blue
1175,b00qxzsc7o,653,image-slider-response,1461,5ffc250201d8312c325a16a5,conJudg,100,FL,dep,match,h,3.1,1,dep,3,high,dep,blue
1175,kyb3lzn0xx,627,image-slider-response,668,5ee9cbbbdcf662000932fb78,conJudg,0,LF,dep,match,h,3.1,1,dep,3,high,dep,blue
1175,cjpw7y8c1k,615,image-slider-response,2131,5efdc12f5d69f622915a97a1,conJudg,100,LF,dep,match,h,3.1,1,dep,3,high,dep,blue
1175,823tgxfuz7,617,image-slider-response,2294,5f632ea32e85353d93872c67,conJudg,86,LF,dep,match,h,3.1,1,dep,3,high,dep,blue
1175,f9gvt2ubve,701,image-slider-response,4455,5f529cd9e0a90c58773ec3fe,conJudg,97,LF,dep,match,h,3.1,1,dep,3,high,dep,blue
1175,wod6ma11s3,643,image-slider-response,2958,5f8228f40afba53534e6f583,conJudg,100,FL,dep,match,h,3.1,1,dep,3,high,dep,blue
1175,pbt3n7l1gj,665,image-slider-response,1755,5f63d70e4e460f141abccbc1,conJudg,100,FL,dep,match,h,3.1,1,dep,3,high,dep,blue
1175,67zqwpqc3v,633,image-slider-response,2930,5ea3066769713007dfc5f1c3,conJudg,-66,LF,dep,match,h,3.1,1,dep,3,high,dep,blue
1175,jlov66vr8s,649,image-slider-response,3625,5fc65eb000091528ea745f65,conJudg,76,FL,dep,match,h,3.1,1,dep,3,high,dep,blue
1175,sxbrz00bs5,607,image-slider-response,3160,5ee7335388010f4c1b6bbdc2,conJudg,44,LF,dep,match,h,3.1,1,dep,3,high,dep,blue
1175,163k2z1uov,687,image-slider-response,3308,5f11ccbc1a1a2c08b4a99efb,conJudg,-26,LF,dep,match,h,3.1,1,dep,3,high,dep,blue
1175,6j0z0b0c72,715,image-slider-response,6187,5ea44104a980d23d4f21f7ad,conJudg,75,LF,dep,match,h,3.1,1,dep,3,high,dep,blue
1225,ssktzegauz,717,image-slider-response,2347,5edba672293f3b028b70eb25,conJudg,-100,LF,dep,match,l,3.2,2,dep,3,low,dep,red
1225,s52728tqhv,663,image-slider-response,4492,6014777b8a88c449408352c5,conJudg,-100,LF,dep,match,l,3.2,2,dep,3,low,dep,red
1225,581oqcuhue,609,image-slider-response,3595,6009c2eda21be3026447d80e,conJudg,-100,LF,dep,match,l,3.2,2,dep,3,low,dep,red
1225,mvqchu948c,721,image-slider-response,4816,5b421b9ac2e3810001763252,conJudg,10,FL,dep,match,l,3.2,2,dep,3,low,dep,red
1225,71bdswcm9k,695,image-slider-response,3185,5f591a5a9a49e211efead835,conJudg,-21,LF,dep,match,l,3.2,2,dep,3,low,dep,red
1225,823tgxfuz7,713,image-slider-response,2293,5f632ea32e85353d93872c67,conJudg,-77,LF,dep,match,l,3.2,2,dep,3,low,dep,red
1225,mus0v446tm,695,image-slider-response,2121,5f8dda4538ed0614d9ac476b,conJudg,-60,LF,dep,match,l,3.2,2,dep,3,low,dep,red
1225,t8qovvqyjq,627,image-slider-response,5407,5f89cbc45b38f5016101011c,conJudg,100,FL,dep,match,l,3.2,2,dep,3,low,dep,red
1225,hcnkaylepg,671,image-slider-response,4225,5ce8ebe9c9379d0019898681,conJudg,-59,FL,dep,match,l,3.2,2,dep,3,low,dep,red
1225,rhglzajksw,707,image-slider-response,2485,5ea98f445ef6ee093f4f05ec,conJudg,-100,FL,dep,match,l,3.2,2,dep,3,low,dep,red
1225,qfloq0vkd1,695,image-slider-response,2021,5acb896da3ba7a0001b4e99f,conJudg,-64,LF,dep,match,l,3.2,2,dep,3,low,dep,red
1225,9y1b9uh65r,633,image-slider-response,1533,5daca079bf590700167f704d,conJudg,38,LF,dep,match,l,3.2,2,dep,3,low,dep,red
1225,cpd84kvzmq,685,image-slider-response,3598,5ed63a6d50ece703aa7bffb9,conJudg,-100,FL,dep,match,l,3.2,2,dep,3,low,dep,red
1225,xtbpfv8d5p,639,image-slider-response,1788,5fbade0c4594d6b7c7d96ca9,conJudg,-100,FL,dep,match,l,3.2,2,dep,3,low,dep,red
1225,pbt3n7l1gj,625,image-slider-response,2402,5f63d70e4e460f141abccbc1,conJudg,100,FL,dep,match,l,3.2,2,dep,3,low,dep,red
1225,nsqbzarmrc,665,image-slider-response,2693,601e9d81606b8d337ab338e4,conJudg,-100,FL,dep,match,l,3.2,2,dep,3,low,dep,red
1225,v9kdh4rpsp,621,image-slider-response,1969,5ed14691e983f5067842fd20,conJudg,100,LF,dep,match,l,3.2,2,dep,3,low,dep,red
1225,yhakp9pfe9,705,image-slider-response,4633,5f57a42b46df8927414990fc,conJudg,-91,LF,dep,match,l,3.2,2,dep,3,low,dep,red
1225,kfhtlqkth4,633,image-slider-response,2553,5edf8803c008532459792282,conJudg,-71,FL,dep,match,l,3.2,2,dep,3,low,dep,red
1225,b576vfvfdd,623,image-slider-response,4519,5ea85cf4ad1f760a537eadfe,conJudg,-66,FL,dep,match,l,3.2,2,dep,3,low,dep,red
1225,cjpw7y8c1k,637,image-slider-response,5136,5efdc12f5d69f622915a97a1,conJudg,-100,LF,dep,match,l,3.2,2,dep,3,low,dep,red
1225,f9gvt2ubve,669,image-slider-response,6135,5f529cd9e0a90c58773ec3fe,conJudg,-47,LF,dep,match,l,3.2,2,dep,3,low,dep,red
1225,67zqwpqc3v,655,image-slider-response,2348,5ea3066769713007dfc5f1c3,conJudg,-63,LF,dep,match,l,3.2,2,dep,3,low,dep,red
1225,ym6cxam2f3,671,image-slider-response,3028,5ee87dba82ed8101333c7744,conJudg,-70,FL,dep,match,l,3.2,2,dep,3,low,dep,red
1225,dn0e1jm7ff,673,image-slider-response,2075,5e0cf83bc12a3649f4c9ee92,conJudg,-67,LF,dep,match,l,3.2,2,dep,3,low,dep,red
1225,o0xz7vf2yt,689,image-slider-response,2756,5f2b196c0c610f4ec3eb5451,conJudg,-82,LF,dep,match,l,3.2,2,dep,3,low,dep,red
1225,hc4uh4u04h,711,image-slider-response,2402,5f5d6c3cbacc025bf0a03440,conJudg,30,FL,dep,match,l,3.2,2,dep,3,low,dep,red
1225,z4xhznw88z,679,image-slider-response,3856,5fae68d5b74c182cacbe5d6a,conJudg,52,LF,dep,match,l,3.2,2,dep,3,low,dep,red
1225,3b8h3oor4p,687,image-slider-response,4839,5f61bbe3c18cc915aac68b32,conJudg,17,FL,dep,match,l,3.2,2,dep,3,low,dep,red
1225,gcrz58pdx0,713,image-slider-response,5235,5f9b106e21189e2d3b853846,conJudg,-100,LF,dep,match,l,3.2,2,dep,3,low,dep,red
1225,zq33udleq5,611,image-slider-response,2057,5ec527351fc19046fdd6cd59,conJudg,68,FL,dep,match,l,3.2,2,dep,3,low,dep,red
1225,fkw1vwzc6v,689,image-slider-response,3126,5f50d630390521264e606772,conJudg,-88,FL,dep,match,l,3.2,2,dep,3,low,dep,red
1225,wod6ma11s3,667,image-slider-response,3195,5f8228f40afba53534e6f583,conJudg,-70,FL,dep,match,l,3.2,2,dep,3,low,dep,red
1225,fggxxfkvfo,633,image-slider-response,5430,5fbfb86436a5de31c546f37b,conJudg,-18,LF,dep,match,l,3.2,2,dep,3,low,dep,red
1225,3a2waojqmg,667,image-slider-response,3495,5e6a2c7c5b057b08e930e89d,conJudg,-35,FL,dep,match,l,3.2,2,dep,3,low,dep,red
1225,1gynr5ywqp,649,image-slider-response,1741,5db1bba0e20f58000b8717f6,conJudg,-57,FL,dep,match,l,3.2,2,dep,3,low,dep,red
1225,q963ed16o4,621,image-slider-response,2502,6006cf1238099707863fc7b4,conJudg,-43,FL,dep,match,l,3.2,2,dep,3,low,dep,red
1225,5g2fbehb04,605,image-slider-response,4542,591a1f4800a5650001276188,conJudg,-64,FL,dep,match,l,3.2,2,dep,3,low,dep,red
1225,98ysefwhzk,639,image-slider-response,2472,5f482f05cd5e5d2d1d57c1ff,conJudg,0,LF,dep,match,l,3.2,2,dep,3,low,dep,red
1225,8706z1pc24,657,image-slider-response,2887,5c916456ec114b0016418dca,conJudg,-57,LF,dep,match,l,3.2,2,dep,3,low,dep,red
1225,vzebe40w15,663,image-slider-response,1909,5fce9a625474c41129c10fb1,conJudg,-81,LF,dep,match,l,3.2,2,dep,3,low,dep,red
1225,lpb8r8jcs5,663,image-slider-response,7469,5dc1e79c880a2915309a8ee3,conJudg,-40,LF,dep,match,l,3.2,2,dep,3,low,dep,red
1225,rl7z98kzoa,613,image-slider-response,4877,5faa8121f8f5533a5c7f7a20,conJudg,100,LF,dep,match,l,3.2,2,dep,3,low,dep,red
1225,o7w146d4yj,661,image-slider-response,3483,5f343de4d0c07630b7f90b92,conJudg,-16,LF,dep,match,l,3.2,2,dep,3,low,dep,red
1225,e9dxj57s6l,627,image-slider-response,4328,5eb58476f88d4008fa483809,conJudg,-25,FL,dep,match,l,3.2,2,dep,3,low,dep,red
1225,1e9hhup9lf,659,image-slider-response,2074,5cbc680bfb8dfe0001839ba2,conJudg,34,LF,dep,match,l,3.2,2,dep,3,low,dep,red
1225,j07stgzsr2,637,image-slider-response,3826,5d77c0eb4a666c0019561a80,conJudg,-100,FL,dep,match,l,3.2,2,dep,3,low,dep,red
1225,yc8mkz3uaa,709,image-slider-response,1419,5eaeb8b513f83a57d35db285,conJudg,25,LF,dep,match,l,3.2,2,dep,3,low,dep,red
1225,4xwhpmkg0h,603,image-slider-response,2554,5ef12a14ab53a21a9012b389,conJudg,40,FL,dep,match,l,3.2,2,dep,3,low,dep,red
1225,e4msx463h0,677,image-slider-response,2759,5f1f04c1604e3508877cf62a,conJudg,-100,FL,dep,match,l,3.2,2,dep,3,low,dep,red
1225,t2ubvm70lv,679,image-slider-response,5837,5f858743256d25036d9fa693,conJudg,-95,LF,dep,match,l,3.2,2,dep,3,low,dep,red
1225,jxvpkh0u3z,689,image-slider-response,1564,5fd74512393436000a1a7323,conJudg,-100,FL,dep,match,l,3.2,2,dep,3,low,dep,red
1225,26fmzvup9c,637,image-slider-response,4900,5e94262948e806768dfa43ed,conJudg,90,FL,dep,match,l,3.2,2,dep,3,low,dep,red
1225,8k7ujzqkju,711,image-slider-response,2391,5e8b2e599abd417d9512a877,conJudg,-100,LF,dep,match,l,3.2,2,dep,3,low,dep,red
1225,g8ez0w4wvj,659,image-slider-response,1614,5ec32348079dcc17451cac16,conJudg,-100,FL,dep,match,l,3.2,2,dep,3,low,dep,red
1225,pmz1eqhg0u,673,image-slider-response,NA,5f1bfe98441e2743f34fa16a,conJudg,NA,LF,dep,match,l,3.2,2,dep,3,low,dep,red
1225,ffbjr4pqha,663,image-slider-response,4121,6009c27b9e9b700266fd52b5,conJudg,-100,FL,dep,match,l,3.2,2,dep,3,low,dep,red
1225,gqq2p40hu9,701,image-slider-response,NA,5d41aa9ec61bc300012c73f6,conJudg,NA,LF,dep,match,l,3.2,2,dep,3,low,dep,red
1225,0yjn7eg9zc,683,image-slider-response,1817,5f06ee44c10cab2655ea3822,conJudg,53,FL,dep,match,l,3.2,2,dep,3,low,dep,red
1225,53gv7n4gtu,719,image-slider-response,2635,601fd3cd92f028532a257baf,conJudg,100,LF,dep,match,l,3.2,2,dep,3,low,dep,red
1225,3mctt6t3lt,651,image-slider-response,3603,5b3cb17b6779080001fe88c1,conJudg,-100,FL,dep,match,l,3.2,2,dep,3,low,dep,red
1225,ek1v85vere,707,image-slider-response,1999,5bdcd99964215c0001282b34,conJudg,-28,LF,dep,match,l,3.2,2,dep,3,low,dep,red
1225,kyb3lzn0xx,685,image-slider-response,822,5ee9cbbbdcf662000932fb78,conJudg,0,LF,dep,match,l,3.2,2,dep,3,low,dep,red
1225,5urksolxqo,647,image-slider-response,2683,5d10fe33fbbf3d001a56d936,conJudg,46,LF,dep,match,l,3.2,2,dep,3,low,dep,red
1225,9q76krfydn,717,image-slider-response,2697,5f3d9a9f10a5f219cfe0b404,conJudg,-100,FL,dep,match,l,3.2,2,dep,3,low,dep,red
1225,5qj7var04h,639,image-slider-response,5010,5f4f835cea1e870397a4d295,conJudg,80,LF,dep,match,l,3.2,2,dep,3,low,dep,red
1225,aj9q5o0gf2,673,image-slider-response,3410,5b01e69aa496b300013d5b9b,conJudg,18,FL,dep,match,l,3.2,2,dep,3,low,dep,red
1225,jlov66vr8s,669,image-slider-response,1781,5fc65eb000091528ea745f65,conJudg,-83,FL,dep,match,l,3.2,2,dep,3,low,dep,red
1225,r4145wj5y7,623,image-slider-response,3431,5f78b0e3b43f410c88d3af45,conJudg,0,LF,dep,match,l,3.2,2,dep,3,low,dep,red
1225,ol68ft1h8h,721,image-slider-response,3013,5e5e17c97593e912e086c640,conJudg,-100,FL,dep,match,l,3.2,2,dep,3,low,dep,red
1225,9x75jv8vpf,713,image-slider-response,1340,5f34cb60fa6cf63ecf31902d,conJudg,-94,FL,dep,match,l,3.2,2,dep,3,low,dep,red
1225,b00qxzsc7o,705,image-slider-response,2611,5ffc250201d8312c325a16a5,conJudg,-100,FL,dep,match,l,3.2,2,dep,3,low,dep,red
1225,85gul0f7qh,625,image-slider-response,4149,5e4ab1b4ca765d000edebd15,conJudg,-100,LF,dep,match,l,3.2,2,dep,3,low,dep,red
1225,q3zadoj47e,647,image-slider-response,2284,5e47ad846c3d4425c60ccbe5,conJudg,0,FL,dep,match,l,3.2,2,dep,3,low,dep,red
1225,32gxlbaw1s,623,image-slider-response,3227,5ea2381ad0a4b71481c298e7,conJudg,-55,LF,dep,match,l,3.2,2,dep,3,low,dep,red
1225,xu8vthdm2k,719,image-slider-response,1942,5f85eb74d99dd00d735c107f,conJudg,-25,FL,dep,match,l,3.2,2,dep,3,low,dep,red
1225,e72zvev590,657,image-slider-response,5962,5e6617541d7e1a3885c45e85,conJudg,-26,FL,dep,match,l,3.2,2,dep,3,low,dep,red
1225,d1snyw7jw6,661,image-slider-response,1885,5fc13b486833fb13fef1720b,conJudg,-100,LF,dep,match,l,3.2,2,dep,3,low,dep,red
1225,d1c4anqfzp,631,image-slider-response,4196,5c5d6b55b7ce2100011fa04e,conJudg,-100,FL,dep,match,l,3.2,2,dep,3,low,dep,red
1225,sxbrz00bs5,673,image-slider-response,4107,5ee7335388010f4c1b6bbdc2,conJudg,72,LF,dep,match,l,3.2,2,dep,3,low,dep,red
1225,jfuskuq35s,721,image-slider-response,2373,5f50e3d60305bb088998b766,conJudg,22,LF,dep,match,l,3.2,2,dep,3,low,dep,red
1225,yj9gmh2tyv,709,image-slider-response,3493,5e8dcc81e6686e035680594e,conJudg,-100,LF,dep,match,l,3.2,2,dep,3,low,dep,red
1225,371addqx7x,603,image-slider-response,7824,5d8cd4be7bd5180017d887a3,conJudg,18,FL,dep,match,l,3.2,2,dep,3,low,dep,red
1225,2n2kv71sum,683,image-slider-response,2278,5e67d9ed33e6a60542f4dfd7,conJudg,48,LF,dep,match,l,3.2,2,dep,3,low,dep,red
1225,xekfnorue1,713,image-slider-response,1691,5a11a7d0f2e3460001edbe35,conJudg,73,FL,dep,match,l,3.2,2,dep,3,low,dep,red
1225,vkybhfxevw,605,image-slider-response,2538,5f9d4170f629422451ac7fd8,conJudg,-74,LF,dep,match,l,3.2,2,dep,3,low,dep,red
1225,s80pnsgly8,653,image-slider-response,2365,5ed09b6985143f000c08b6b8,conJudg,45,FL,dep,match,l,3.2,2,dep,3,low,dep,red
1225,pusqm5jv5t,687,image-slider-response,2704,5f477a85d919ec03cadfaddd,conJudg,46,FL,dep,match,l,3.2,2,dep,3,low,dep,red
1225,qnx5xathwg,667,image-slider-response,3012,5cc7f4b3854fb30001d0c13a,conJudg,39,LF,dep,match,l,3.2,2,dep,3,low,dep,red
1225,x8lrz32hbv,707,image-slider-response,2955,5e7b899a6b890e0659e5e82e,conJudg,22,FL,dep,match,l,3.2,2,dep,3,low,dep,red
1225,163k2z1uov,683,image-slider-response,4305,5f11ccbc1a1a2c08b4a99efb,conJudg,12,LF,dep,match,l,3.2,2,dep,3,low,dep,red
1225,t5ex7zbfo2,643,image-slider-response,1794,5fd7ee02c0a4610ea7d258b4,conJudg,-100,LF,dep,match,l,3.2,2,dep,3,low,dep,red
1225,daqg5rc8xw,683,image-slider-response,3057,5eadc934201643479a185e59,conJudg,22,LF,dep,match,l,3.2,2,dep,3,low,dep,red
1225,55ovzw4068,709,image-slider-response,2397,5f830f1644cc14447b03305c,conJudg,-100,FL,dep,match,l,3.2,2,dep,3,low,dep,red
1225,38cgqt2jvy,671,image-slider-response,3323,5f83138efa73fa44e23c5237,conJudg,71,FL,dep,match,l,3.2,2,dep,3,low,dep,red
1225,4euvjgbfcc,675,image-slider-response,3064,600355394a113e408f54cce5,conJudg,-88,LF,dep,match,l,3.2,2,dep,3,low,dep,red
1225,e4s1gf870t,613,image-slider-response,2118,5f677b748c011837e12cba61,conJudg,26,FL,dep,match,l,3.2,2,dep,3,low,dep,red
1225,6j0z0b0c72,659,image-slider-response,3506,5ea44104a980d23d4f21f7ad,conJudg,-97,LF,dep,match,l,3.2,2,dep,3,low,dep,red
1225,zt96waez4c,677,image-slider-response,1636,5daca66b71a51b00113172ce,conJudg,-47,LF,dep,match,l,3.2,2,dep,3,low,dep,red
1225,psp3bt1vuy,619,image-slider-response,1238,5933d3c4ed2e9a0001d37ab4,conJudg,0,FL,dep,match,l,3.2,2,dep,3,low,dep,red
1225,ufb4y7bj2f,711,image-slider-response,2539,5c2ce112f422870001fcab1f,conJudg,-65,FL,dep,match,l,3.2,2,dep,3,low,dep,red
1225,0tf06g8uzp,615,image-slider-response,4137,5b98223fbdb1df0001f1e684,conJudg,95,LF,dep,match,l,3.2,2,dep,3,low,dep,red
1225,w2brxm7ay2,697,image-slider-response,4870,5f60713e595007000a8e1da7,conJudg,-43,FL,dep,match,l,3.2,2,dep,3,low,dep,red
1225,uyc3tp4v50,719,image-slider-response,1855,6017d6a23bdebea5e9062e9d,conJudg,-100,FL,dep,match,l,3.2,2,dep,3,low,dep,red
1225,oqwgn1zhn1,649,image-slider-response,2231,5eb5cb8ddef42c4ad1456dd9,conJudg,-100,FL,dep,match,l,3.2,2,dep,3,low,dep,red
1225,s0xp76sxy4,667,image-slider-response,4007,5f68a907efe6b000080540be,conJudg,-44,LF,dep,match,l,3.2,2,dep,3,low,dep,red
1225,f208my9c1t,719,image-slider-response,3971,5d920df12b679a00182bbc73,conJudg,-45,LF,dep,match,l,3.2,2,dep,3,low,dep,red
1225,ker7u0dhxt,667,image-slider-response,958,5c87d68fe5bc060001ee8498,conJudg,0,FL,dep,match,l,3.2,2,dep,3,low,dep,red
1225,y20qp8dcxo,681,image-slider-response,3704,5f578563765fec223eb51594,conJudg,41,LF,dep,match,l,3.2,2,dep,3,low,dep,red
125,zq33udleq5,645,image-slider-response,2808,5ec527351fc19046fdd6cd59,conJudg,-59,FL,tob,match,l,1.2,1,tob,1,low,tob,purple
125,wod6ma11s3,697,image-slider-response,4965,5f8228f40afba53534e6f583,conJudg,-62,FL,tob,match,l,1.2,1,tob,1,low,tob,purple
125,gqq2p40hu9,641,image-slider-response,NA,5d41aa9ec61bc300012c73f6,conJudg,NA,LF,tob,match,l,1.2,1,tob,1,low,tob,purple
125,1e9hhup9lf,643,image-slider-response,1406,5cbc680bfb8dfe0001839ba2,conJudg,26,LF,tob,match,l,1.2,1,tob,1,low,tob,purple
125,rhglzajksw,717,image-slider-response,4787,5ea98f445ef6ee093f4f05ec,conJudg,52,FL,tob,match,l,1.2,1,tob,1,low,tob,purple
125,q963ed16o4,683,image-slider-response,3458,6006cf1238099707863fc7b4,conJudg,-100,FL,tob,match,l,1.2,1,tob,1,low,tob,purple
125,yj9gmh2tyv,705,image-slider-response,2690,5e8dcc81e6686e035680594e,conJudg,100,LF,tob,match,l,1.2,1,tob,1,low,tob,purple
125,9y1b9uh65r,631,image-slider-response,1894,5daca079bf590700167f704d,conJudg,-2,LF,tob,match,l,1.2,1,tob,1,low,tob,purple
125,pmz1eqhg0u,633,image-slider-response,4676,5f1bfe98441e2743f34fa16a,conJudg,-100,LF,tob,match,l,1.2,1,tob,1,low,tob,purple
125,38cgqt2jvy,653,image-slider-response,3399,5f83138efa73fa44e23c5237,conJudg,72,FL,tob,match,l,1.2,1,tob,1,low,tob,purple
125,85gul0f7qh,689,image-slider-response,2411,5e4ab1b4ca765d000edebd15,conJudg,-100,LF,tob,match,l,1.2,1,tob,1,low,tob,purple
125,qfloq0vkd1,661,image-slider-response,1765,5acb896da3ba7a0001b4e99f,conJudg,-54,LF,tob,match,l,1.2,1,tob,1,low,tob,purple
125,hc4uh4u04h,669,image-slider-response,2962,5f5d6c3cbacc025bf0a03440,conJudg,-100,FL,tob,match,l,1.2,1,tob,1,low,tob,purple
125,s80pnsgly8,641,image-slider-response,2506,5ed09b6985143f000c08b6b8,conJudg,59,FL,tob,match,l,1.2,1,tob,1,low,tob,purple
125,4xwhpmkg0h,693,image-slider-response,2510,5ef12a14ab53a21a9012b389,conJudg,-34,FL,tob,match,l,1.2,1,tob,1,low,tob,purple
125,t2ubvm70lv,691,image-slider-response,3244,5f858743256d25036d9fa693,conJudg,-100,LF,tob,match,l,1.2,1,tob,1,low,tob,purple
125,cjpw7y8c1k,649,image-slider-response,2729,5efdc12f5d69f622915a97a1,conJudg,-100,LF,tob,match,l,1.2,1,tob,1,low,tob,purple
125,q3zadoj47e,651,image-slider-response,2318,5e47ad846c3d4425c60ccbe5,conJudg,-100,FL,tob,match,l,1.2,1,tob,1,low,tob,purple
125,e4msx463h0,627,image-slider-response,2574,5f1f04c1604e3508877cf62a,conJudg,-100,FL,tob,match,l,1.2,1,tob,1,low,tob,purple
125,9x75jv8vpf,669,image-slider-response,1766,5f34cb60fa6cf63ecf31902d,conJudg,-85,FL,tob,match,l,1.2,1,tob,1,low,tob,purple
125,32gxlbaw1s,625,image-slider-response,2408,5ea2381ad0a4b71481c298e7,conJudg,-100,LF,tob,match,l,1.2,1,tob,1,low,tob,purple
125,581oqcuhue,641,image-slider-response,5515,6009c2eda21be3026447d80e,conJudg,-100,LF,tob,match,l,1.2,1,tob,1,low,tob,purple
125,kyb3lzn0xx,705,image-slider-response,2281,5ee9cbbbdcf662000932fb78,conJudg,-100,LF,tob,match,l,1.2,1,tob,1,low,tob,purple
125,jfuskuq35s,701,image-slider-response,2855,5f50e3d60305bb088998b766,conJudg,-86,LF,tob,match,l,1.2,1,tob,1,low,tob,purple
125,vkybhfxevw,705,image-slider-response,1340,5f9d4170f629422451ac7fd8,conJudg,-100,LF,tob,match,l,1.2,1,tob,1,low,tob,purple
125,4euvjgbfcc,625,image-slider-response,2866,600355394a113e408f54cce5,conJudg,-99,LF,tob,match,l,1.2,1,tob,1,low,tob,purple
125,xtbpfv8d5p,665,image-slider-response,1585,5fbade0c4594d6b7c7d96ca9,conJudg,-100,FL,tob,match,l,1.2,1,tob,1,low,tob,purple
125,qnx5xathwg,663,image-slider-response,2587,5cc7f4b3854fb30001d0c13a,conJudg,52,LF,tob,match,l,1.2,1,tob,1,low,tob,purple
125,0yjn7eg9zc,713,image-slider-response,2654,5f06ee44c10cab2655ea3822,conJudg,-96,FL,tob,match,l,1.2,1,tob,1,low,tob,purple
125,oqwgn1zhn1,629,image-slider-response,2938,5eb5cb8ddef42c4ad1456dd9,conJudg,-91,FL,tob,match,l,1.2,1,tob,1,low,tob,purple
125,8706z1pc24,627,image-slider-response,1986,5c916456ec114b0016418dca,conJudg,-100,LF,tob,match,l,1.2,1,tob,1,low,tob,purple
125,98ysefwhzk,685,image-slider-response,2406,5f482f05cd5e5d2d1d57c1ff,conJudg,0,LF,tob,match,l,1.2,1,tob,1,low,tob,purple
125,o7w146d4yj,633,image-slider-response,3341,5f343de4d0c07630b7f90b92,conJudg,-30,LF,tob,match,l,1.2,1,tob,1,low,tob,purple
125,53gv7n4gtu,643,image-slider-response,2064,601fd3cd92f028532a257baf,conJudg,0,LF,tob,match,l,1.2,1,tob,1,low,tob,purple
125,r4145wj5y7,605,image-slider-response,3466,5f78b0e3b43f410c88d3af45,conJudg,72,LF,tob,match,l,1.2,1,tob,1,low,tob,purple
125,aj9q5o0gf2,659,image-slider-response,3414,5b01e69aa496b300013d5b9b,conJudg,17,FL,tob,match,l,1.2,1,tob,1,low,tob,purple
125,163k2z1uov,603,image-slider-response,3830,5f11ccbc1a1a2c08b4a99efb,conJudg,42,LF,tob,match,l,1.2,1,tob,1,low,tob,purple
125,0tf06g8uzp,673,image-slider-response,2804,5b98223fbdb1df0001f1e684,conJudg,-100,LF,tob,match,l,1.2,1,tob,1,low,tob,purple
125,fggxxfkvfo,647,image-slider-response,3513,5fbfb86436a5de31c546f37b,conJudg,69,LF,tob,match,l,1.2,1,tob,1,low,tob,purple
125,zt96waez4c,665,image-slider-response,1020,5daca66b71a51b00113172ce,conJudg,40,LF,tob,match,l,1.2,1,tob,1,low,tob,purple
125,daqg5rc8xw,719,image-slider-response,3426,5eadc934201643479a185e59,conJudg,-63,LF,tob,match,l,1.2,1,tob,1,low,tob,purple
125,pbt3n7l1gj,631,image-slider-response,2592,5f63d70e4e460f141abccbc1,conJudg,69,FL,tob,match,l,1.2,1,tob,1,low,tob,purple
125,b00qxzsc7o,661,image-slider-response,1551,5ffc250201d8312c325a16a5,conJudg,-100,FL,tob,match,l,1.2,1,tob,1,low,tob,purple
125,d1c4anqfzp,717,image-slider-response,4834,5c5d6b55b7ce2100011fa04e,conJudg,-100,FL,tob,match,l,1.2,1,tob,1,low,tob,purple
125,w2brxm7ay2,701,image-slider-response,3345,5f60713e595007000a8e1da7,conJudg,-32,FL,tob,match,l,1.2,1,tob,1,low,tob,purple
125,jxvpkh0u3z,677,image-slider-response,2013,5fd74512393436000a1a7323,conJudg,-100,FL,tob,match,l,1.2,1,tob,1,low,tob,purple
125,s52728tqhv,681,image-slider-response,2598,6014777b8a88c449408352c5,conJudg,-100,LF,tob,match,l,1.2,1,tob,1,low,tob,purple
125,v9kdh4rpsp,717,image-slider-response,2324,5ed14691e983f5067842fd20,conJudg,-100,LF,tob,match,l,1.2,1,tob,1,low,tob,purple
125,8k7ujzqkju,715,image-slider-response,2050,5e8b2e599abd417d9512a877,conJudg,100,LF,tob,match,l,1.2,1,tob,1,low,tob,purple
125,ffbjr4pqha,671,image-slider-response,1497,6009c27b9e9b700266fd52b5,conJudg,0,FL,tob,match,l,1.2,1,tob,1,low,tob,purple
125,s0xp76sxy4,661,image-slider-response,3384,5f68a907efe6b000080540be,conJudg,62,LF,tob,match,l,1.2,1,tob,1,low,tob,purple
125,t8qovvqyjq,677,image-slider-response,4508,5f89cbc45b38f5016101011c,conJudg,100,FL,tob,match,l,1.2,1,tob,1,low,tob,purple
125,xu8vthdm2k,627,image-slider-response,2871,5f85eb74d99dd00d735c107f,conJudg,-100,FL,tob,match,l,1.2,1,tob,1,low,tob,purple
125,nsqbzarmrc,699,image-slider-response,2941,601e9d81606b8d337ab338e4,conJudg,-100,FL,tob,match,l,1.2,1,tob,1,low,tob,purple
125,jlov66vr8s,641,image-slider-response,3201,5fc65eb000091528ea745f65,conJudg,-100,FL,tob,match,l,1.2,1,tob,1,low,tob,purple
125,fkw1vwzc6v,651,image-slider-response,5538,5f50d630390521264e606772,conJudg,-98,FL,tob,match,l,1.2,1,tob,1,low,tob,purple
125,5g2fbehb04,675,image-slider-response,3499,591a1f4800a5650001276188,conJudg,100,FL,tob,match,l,1.2,1,tob,1,low,tob,purple
125,rl7z98kzoa,661,image-slider-response,6356,5faa8121f8f5533a5c7f7a20,conJudg,-45,LF,tob,match,l,1.2,1,tob,1,low,tob,purple
125,mus0v446tm,709,image-slider-response,2406,5f8dda4538ed0614d9ac476b,conJudg,-100,LF,tob,match,l,1.2,1,tob,1,low,tob,purple
125,vzebe40w15,685,image-slider-response,2638,5fce9a625474c41129c10fb1,conJudg,67,LF,tob,match,l,1.2,1,tob,1,low,tob,purple
125,lpb8r8jcs5,687,image-slider-response,2537,5dc1e79c880a2915309a8ee3,conJudg,-32,LF,tob,match,l,1.2,1,tob,1,low,tob,purple
125,55ovzw4068,713,image-slider-response,2797,5f830f1644cc14447b03305c,conJudg,-100,FL,tob,match,l,1.2,1,tob,1,low,tob,purple
125,b576vfvfdd,707,image-slider-response,2493,5ea85cf4ad1f760a537eadfe,conJudg,-49,FL,tob,match,l,1.2,1,tob,1,low,tob,purple
125,xekfnorue1,631,image-slider-response,1966,5a11a7d0f2e3460001edbe35,conJudg,-84,FL,tob,match,l,1.2,1,tob,1,low,tob,purple
125,3mctt6t3lt,719,image-slider-response,1871,5b3cb17b6779080001fe88c1,conJudg,-100,FL,tob,match,l,1.2,1,tob,1,low,tob,purple
125,cpd84kvzmq,665,image-slider-response,3132,5ed63a6d50ece703aa7bffb9,conJudg,-99,FL,tob,match,l,1.2,1,tob,1,low,tob,purple
125,3b8h3oor4p,609,image-slider-response,5432,5f61bbe3c18cc915aac68b32,conJudg,-53,FL,tob,match,l,1.2,1,tob,1,low,tob,purple
125,e72zvev590,647,image-slider-response,2147,5e6617541d7e1a3885c45e85,conJudg,-100,FL,tob,match,l,1.2,1,tob,1,low,tob,purple
125,hcnkaylepg,657,image-slider-response,4084,5ce8ebe9c9379d0019898681,conJudg,63,FL,tob,match,l,1.2,1,tob,1,low,tob,purple
125,5qj7var04h,637,image-slider-response,3152,5f4f835cea1e870397a4d295,conJudg,-97,LF,tob,match,l,1.2,1,tob,1,low,tob,purple
125,1gynr5ywqp,645,image-slider-response,3887,5db1bba0e20f58000b8717f6,conJudg,71,FL,tob,match,l,1.2,1,tob,1,low,tob,purple
125,yc8mkz3uaa,661,image-slider-response,1953,5eaeb8b513f83a57d35db285,conJudg,-68,LF,tob,match,l,1.2,1,tob,1,low,tob,purple
125,3a2waojqmg,685,image-slider-response,2908,5e6a2c7c5b057b08e930e89d,conJudg,-40,FL,tob,match,l,1.2,1,tob,1,low,tob,purple
125,ek1v85vere,697,image-slider-response,2313,5bdcd99964215c0001282b34,conJudg,-97,LF,tob,match,l,1.2,1,tob,1,low,tob,purple
125,ufb4y7bj2f,709,image-slider-response,1879,5c2ce112f422870001fcab1f,conJudg,-71,FL,tob,match,l,1.2,1,tob,1,low,tob,purple
125,j07stgzsr2,643,image-slider-response,4820,5d77c0eb4a666c0019561a80,conJudg,0,FL,tob,match,l,1.2,1,tob,1,low,tob,purple
125,ym6cxam2f3,685,image-slider-response,2363,5ee87dba82ed8101333c7744,conJudg,-100,FL,tob,match,l,1.2,1,tob,1,low,tob,purple
125,dn0e1jm7ff,663,image-slider-response,2123,5e0cf83bc12a3649f4c9ee92,conJudg,-100,LF,tob,match,l,1.2,1,tob,1,low,tob,purple
125,371addqx7x,633,image-slider-response,5048,5d8cd4be7bd5180017d887a3,conJudg,-70,FL,tob,match,l,1.2,1,tob,1,low,tob,purple
125,x8lrz32hbv,659,image-slider-response,4266,5e7b899a6b890e0659e5e82e,conJudg,0,FL,tob,match,l,1.2,1,tob,1,low,tob,purple
125,uyc3tp4v50,603,image-slider-response,3014,6017d6a23bdebea5e9062e9d,conJudg,-100,FL,tob,match,l,1.2,1,tob,1,low,tob,purple
125,ker7u0dhxt,709,image-slider-response,2298,5c87d68fe5bc060001ee8498,conJudg,-54,FL,tob,match,l,1.2,1,tob,1,low,tob,purple
125,9q76krfydn,681,image-slider-response,2361,5f3d9a9f10a5f219cfe0b404,conJudg,-52,FL,tob,match,l,1.2,1,tob,1,low,tob,purple
125,f9gvt2ubve,629,image-slider-response,3327,5f529cd9e0a90c58773ec3fe,conJudg,-100,LF,tob,match,l,1.2,1,tob,1,low,tob,purple
125,y20qp8dcxo,639,image-slider-response,4506,5f578563765fec223eb51594,conJudg,100,LF,tob,match,l,1.2,1,tob,1,low,tob,purple
125,2n2kv71sum,709,image-slider-response,3481,5e67d9ed33e6a60542f4dfd7,conJudg,-100,LF,tob,match,l,1.2,1,tob,1,low,tob,purple
125,e4s1gf870t,635,image-slider-response,2456,5f677b748c011837e12cba61,conJudg,40,FL,tob,match,l,1.2,1,tob,1,low,tob,purple
125,f208my9c1t,617,image-slider-response,4718,5d920df12b679a00182bbc73,conJudg,-8,LF,tob,match,l,1.2,1,tob,1,low,tob,purple
125,gcrz58pdx0,659,image-slider-response,2548,5f9b106e21189e2d3b853846,conJudg,-100,LF,tob,match,l,1.2,1,tob,1,low,tob,purple
125,67zqwpqc3v,645,image-slider-response,1876,5ea3066769713007dfc5f1c3,conJudg,-49,LF,tob,match,l,1.2,1,tob,1,low,tob,purple
125,mvqchu948c,705,image-slider-response,3347,5b421b9ac2e3810001763252,conJudg,-29,FL,tob,match,l,1.2,1,tob,1,low,tob,purple
125,71bdswcm9k,699,image-slider-response,2588,5f591a5a9a49e211efead835,conJudg,-100,LF,tob,match,l,1.2,1,tob,1,low,tob,purple
125,yhakp9pfe9,607,image-slider-response,4027,5f57a42b46df8927414990fc,conJudg,-81,LF,tob,match,l,1.2,1,tob,1,low,tob,purple
125,ol68ft1h8h,637,image-slider-response,2334,5e5e17c97593e912e086c640,conJudg,-100,FL,tob,match,l,1.2,1,tob,1,low,tob,purple
125,t5ex7zbfo2,657,image-slider-response,1495,5fd7ee02c0a4610ea7d258b4,conJudg,-100,LF,tob,match,l,1.2,1,tob,1,low,tob,purple
125,e9dxj57s6l,643,image-slider-response,4564,5eb58476f88d4008fa483809,conJudg,19,FL,tob,match,l,1.2,1,tob,1,low,tob,purple
125,o0xz7vf2yt,709,image-slider-response,3490,5f2b196c0c610f4ec3eb5451,conJudg,-22,LF,tob,match,l,1.2,1,tob,1,low,tob,purple
125,6j0z0b0c72,697,image-slider-response,3877,5ea44104a980d23d4f21f7ad,conJudg,-86,LF,tob,match,l,1.2,1,tob,1,low,tob,purple
125,823tgxfuz7,691,image-slider-response,5377,5f632ea32e85353d93872c67,conJudg,-85,LF,tob,match,l,1.2,1,tob,1,low,tob,purple
125,sxbrz00bs5,621,image-slider-response,3232,5ee7335388010f4c1b6bbdc2,conJudg,37,LF,tob,match,l,1.2,1,tob,1,low,tob,purple
125,d1snyw7jw6,645,image-slider-response,1909,5fc13b486833fb13fef1720b,conJudg,-84,LF,tob,match,l,1.2,1,tob,1,low,tob,purple
125,pusqm5jv5t,639,image-slider-response,2474,5f477a85d919ec03cadfaddd,conJudg,81,FL,tob,match,l,1.2,1,tob,1,low,tob,purple
125,ssktzegauz,617,image-slider-response,3621,5edba672293f3b028b70eb25,conJudg,-100,LF,tob,match,l,1.2,1,tob,1,low,tob,purple
125,psp3bt1vuy,665,image-slider-response,2457,5933d3c4ed2e9a0001d37ab4,conJudg,-52,FL,tob,match,l,1.2,1,tob,1,low,tob,purple
125,z4xhznw88z,647,image-slider-response,2115,5fae68d5b74c182cacbe5d6a,conJudg,-69,LF,tob,match,l,1.2,1,tob,1,low,tob,purple
125,g8ez0w4wvj,683,image-slider-response,1258,5ec32348079dcc17451cac16,conJudg,-100,FL,tob,match,l,1.2,1,tob,1,low,tob,purple
125,5urksolxqo,659,image-slider-response,4764,5d10fe33fbbf3d001a56d936,conJudg,-42,LF,tob,match,l,1.2,1,tob,1,low,tob,purple
125,kfhtlqkth4,671,image-slider-response,2292,5edf8803c008532459792282,conJudg,-24,FL,tob,match,l,1.2,1,tob,1,low,tob,purple
1275,x8lrz32hbv,607,image-slider-response,4874,5e7b899a6b890e0659e5e82e,conJudg,49,FL,dep,match,h,3.1,2,dep,3,high,dep,blue
1275,ffbjr4pqha,653,image-slider-response,2022,6009c27b9e9b700266fd52b5,conJudg,100,FL,dep,match,h,3.1,2,dep,3,high,dep,blue
1275,yc8mkz3uaa,691,image-slider-response,1871,5eaeb8b513f83a57d35db285,conJudg,89,LF,dep,match,h,3.1,2,dep,3,high,dep,blue
1275,38cgqt2jvy,607,image-slider-response,NA,5f83138efa73fa44e23c5237,conJudg,NA,FL,dep,match,h,3.1,2,dep,3,high,dep,blue
1275,t5ex7zbfo2,687,image-slider-response,2933,5fd7ee02c0a4610ea7d258b4,conJudg,-63,LF,dep,match,h,3.1,2,dep,3,high,dep,blue
1275,q3zadoj47e,617,image-slider-response,2372,5e47ad846c3d4425c60ccbe5,conJudg,100,FL,dep,match,h,3.1,2,dep,3,high,dep,blue
1275,psp3bt1vuy,689,image-slider-response,532,5933d3c4ed2e9a0001d37ab4,conJudg,0,FL,dep,match,h,3.1,2,dep,3,high,dep,blue
1275,pbt3n7l1gj,679,image-slider-response,2267,5f63d70e4e460f141abccbc1,conJudg,100,FL,dep,match,h,3.1,2,dep,3,high,dep,blue
1275,daqg5rc8xw,615,image-slider-response,4544,5eadc934201643479a185e59,conJudg,26,LF,dep,match,h,3.1,2,dep,3,high,dep,blue
1275,ker7u0dhxt,683,image-slider-response,2288,5c87d68fe5bc060001ee8498,conJudg,-4,FL,dep,match,h,3.1,2,dep,3,high,dep,blue
1275,jfuskuq35s,655,image-slider-response,2668,5f50e3d60305bb088998b766,conJudg,14,LF,dep,match,h,3.1,2,dep,3,high,dep,blue
1275,2n2kv71sum,647,image-slider-response,2583,5e67d9ed33e6a60542f4dfd7,conJudg,-48,LF,dep,match,h,3.1,2,dep,3,high,dep,blue
1275,ek1v85vere,615,image-slider-response,2664,5bdcd99964215c0001282b34,conJudg,100,LF,dep,match,h,3.1,2,dep,3,high,dep,blue
1275,s0xp76sxy4,715,image-slider-response,2046,5f68a907efe6b000080540be,conJudg,38,LF,dep,match,h,3.1,2,dep,3,high,dep,blue
1275,pusqm5jv5t,689,image-slider-response,3673,5f477a85d919ec03cadfaddd,conJudg,-60,FL,dep,match,h,3.1,2,dep,3,high,dep,blue
1275,lpb8r8jcs5,711,image-slider-response,3521,5dc1e79c880a2915309a8ee3,conJudg,36,LF,dep,match,h,3.1,2,dep,3,high,dep,blue
1275,3b8h3oor4p,643,image-slider-response,3069,5f61bbe3c18cc915aac68b32,conJudg,100,FL,dep,match,h,3.1,2,dep,3,high,dep,blue
1275,q963ed16o4,633,image-slider-response,5464,6006cf1238099707863fc7b4,conJudg,100,FL,dep,match,h,3.1,2,dep,3,high,dep,blue
1275,f208my9c1t,631,image-slider-response,3830,5d920df12b679a00182bbc73,conJudg,99,LF,dep,match,h,3.1,2,dep,3,high,dep,blue
1275,e4msx463h0,645,image-slider-response,2674,5f1f04c1604e3508877cf62a,conJudg,53,FL,dep,match,h,3.1,2,dep,3,high,dep,blue
1275,dn0e1jm7ff,653,image-slider-response,2481,5e0cf83bc12a3649f4c9ee92,conJudg,36,LF,dep,match,h,3.1,2,dep,3,high,dep,blue
1275,581oqcuhue,635,image-slider-response,3215,6009c2eda21be3026447d80e,conJudg,100,LF,dep,match,h,3.1,2,dep,3,high,dep,blue
1275,s52728tqhv,715,image-slider-response,3746,6014777b8a88c449408352c5,conJudg,100,LF,dep,match,h,3.1,2,dep,3,high,dep,blue
1275,gqq2p40hu9,709,image-slider-response,NA,5d41aa9ec61bc300012c73f6,conJudg,NA,LF,dep,match,h,3.1,2,dep,3,high,dep,blue
1275,0yjn7eg9zc,691,image-slider-response,2351,5f06ee44c10cab2655ea3822,conJudg,-71,FL,dep,match,h,3.1,2,dep,3,high,dep,blue
1275,32gxlbaw1s,685,image-slider-response,1982,5ea2381ad0a4b71481c298e7,conJudg,100,LF,dep,match,h,3.1,2,dep,3,high,dep,blue
1275,f9gvt2ubve,623,image-slider-response,5269,5f529cd9e0a90c58773ec3fe,conJudg,100,LF,dep,match,h,3.1,2,dep,3,high,dep,blue
1275,ol68ft1h8h,669,image-slider-response,1953,5e5e17c97593e912e086c640,conJudg,74,FL,dep,match,h,3.1,2,dep,3,high,dep,blue
1275,g8ez0w4wvj,697,image-slider-response,1135,5ec32348079dcc17451cac16,conJudg,56,FL,dep,match,h,3.1,2,dep,3,high,dep,blue
1275,t8qovvqyjq,605,image-slider-response,3967,5f89cbc45b38f5016101011c,conJudg,100,FL,dep,match,h,3.1,2,dep,3,high,dep,blue
1275,xtbpfv8d5p,615,image-slider-response,5277,5fbade0c4594d6b7c7d96ca9,conJudg,93,FL,dep,match,h,3.1,2,dep,3,high,dep,blue
1275,yj9gmh2tyv,701,image-slider-response,2632,5e8dcc81e6686e035680594e,conJudg,100,LF,dep,match,h,3.1,2,dep,3,high,dep,blue
1275,5urksolxqo,603,image-slider-response,4284,5d10fe33fbbf3d001a56d936,conJudg,57,LF,dep,match,h,3.1,2,dep,3,high,dep,blue
1275,qfloq0vkd1,653,image-slider-response,1805,5acb896da3ba7a0001b4e99f,conJudg,100,LF,dep,match,h,3.1,2,dep,3,high,dep,blue
1275,oqwgn1zhn1,651,image-slider-response,2382,5eb5cb8ddef42c4ad1456dd9,conJudg,100,FL,dep,match,h,3.1,2,dep,3,high,dep,blue
1275,rl7z98kzoa,657,image-slider-response,2946,5faa8121f8f5533a5c7f7a20,conJudg,-100,LF,dep,match,h,3.1,2,dep,3,high,dep,blue
1275,0tf06g8uzp,637,image-slider-response,3660,5b98223fbdb1df0001f1e684,conJudg,100,LF,dep,match,h,3.1,2,dep,3,high,dep,blue
1275,85gul0f7qh,687,image-slider-response,2923,5e4ab1b4ca765d000edebd15,conJudg,100,LF,dep,match,h,3.1,2,dep,3,high,dep,blue
1275,v9kdh4rpsp,679,image-slider-response,2883,5ed14691e983f5067842fd20,conJudg,-100,LF,dep,match,h,3.1,2,dep,3,high,dep,blue
1275,z4xhznw88z,677,image-slider-response,3979,5fae68d5b74c182cacbe5d6a,conJudg,100,LF,dep,match,h,3.1,2,dep,3,high,dep,blue
1275,5g2fbehb04,687,image-slider-response,3157,591a1f4800a5650001276188,conJudg,100,FL,dep,match,h,3.1,2,dep,3,high,dep,blue
1275,pmz1eqhg0u,685,image-slider-response,3978,5f1bfe98441e2743f34fa16a,conJudg,10,LF,dep,match,h,3.1,2,dep,3,high,dep,blue
1275,e4s1gf870t,715,image-slider-response,1132,5f677b748c011837e12cba61,conJudg,26,FL,dep,match,h,3.1,2,dep,3,high,dep,blue
1275,kfhtlqkth4,677,image-slider-response,4500,5edf8803c008532459792282,conJudg,29,FL,dep,match,h,3.1,2,dep,3,high,dep,blue
1275,ym6cxam2f3,641,image-slider-response,2617,5ee87dba82ed8101333c7744,conJudg,80,FL,dep,match,h,3.1,2,dep,3,high,dep,blue
1275,xekfnorue1,651,image-slider-response,2537,5a11a7d0f2e3460001edbe35,conJudg,-74,FL,dep,match,h,3.1,2,dep,3,high,dep,blue
1275,e72zvev590,627,image-slider-response,1672,5e6617541d7e1a3885c45e85,conJudg,0,FL,dep,match,h,3.1,2,dep,3,high,dep,blue
1275,hc4uh4u04h,653,image-slider-response,2794,5f5d6c3cbacc025bf0a03440,conJudg,100,FL,dep,match,h,3.1,2,dep,3,high,dep,blue
1275,jlov66vr8s,703,image-slider-response,2431,5fc65eb000091528ea745f65,conJudg,100,FL,dep,match,h,3.1,2,dep,3,high,dep,blue
1275,hcnkaylepg,611,image-slider-response,4371,5ce8ebe9c9379d0019898681,conJudg,70,FL,dep,match,h,3.1,2,dep,3,high,dep,blue
1275,cpd84kvzmq,701,image-slider-response,5857,5ed63a6d50ece703aa7bffb9,conJudg,-100,FL,dep,match,h,3.1,2,dep,3,high,dep,blue
1275,xu8vthdm2k,649,image-slider-response,2713,5f85eb74d99dd00d735c107f,conJudg,100,FL,dep,match,h,3.1,2,dep,3,high,dep,blue
1275,3a2waojqmg,645,image-slider-response,3204,5e6a2c7c5b057b08e930e89d,conJudg,0,FL,dep,match,h,3.1,2,dep,3,high,dep,blue
1275,e9dxj57s6l,667,image-slider-response,2781,5eb58476f88d4008fa483809,conJudg,51,FL,dep,match,h,3.1,2,dep,3,high,dep,blue
1275,6j0z0b0c72,653,image-slider-response,2858,5ea44104a980d23d4f21f7ad,conJudg,100,LF,dep,match,h,3.1,2,dep,3,high,dep,blue
1275,zt96waez4c,625,image-slider-response,1886,5daca66b71a51b00113172ce,conJudg,-40,LF,dep,match,h,3.1,2,dep,3,high,dep,blue
1275,vzebe40w15,705,image-slider-response,3170,5fce9a625474c41129c10fb1,conJudg,92,LF,dep,match,h,3.1,2,dep,3,high,dep,blue
1275,vkybhfxevw,633,image-slider-response,1955,5f9d4170f629422451ac7fd8,conJudg,100,LF,dep,match,h,3.1,2,dep,3,high,dep,blue
1275,b576vfvfdd,631,image-slider-response,2670,5ea85cf4ad1f760a537eadfe,conJudg,100,FL,dep,match,h,3.1,2,dep,3,high,dep,blue
1275,r4145wj5y7,629,image-slider-response,3372,5f78b0e3b43f410c88d3af45,conJudg,96,LF,dep,match,h,3.1,2,dep,3,high,dep,blue
1275,uyc3tp4v50,707,image-slider-response,2414,6017d6a23bdebea5e9062e9d,conJudg,100,FL,dep,match,h,3.1,2,dep,3,high,dep,blue
1275,j07stgzsr2,683,image-slider-response,2148,5d77c0eb4a666c0019561a80,conJudg,100,FL,dep,match,h,3.1,2,dep,3,high,dep,blue
1275,1e9hhup9lf,613,image-slider-response,2103,5cbc680bfb8dfe0001839ba2,conJudg,58,LF,dep,match,h,3.1,2,dep,3,high,dep,blue
1275,3mctt6t3lt,627,image-slider-response,2399,5b3cb17b6779080001fe88c1,conJudg,100,FL,dep,match,h,3.1,2,dep,3,high,dep,blue
1275,t2ubvm70lv,673,image-slider-response,1869,5f858743256d25036d9fa693,conJudg,-100,LF,dep,match,h,3.1,2,dep,3,high,dep,blue
1275,55ovzw4068,663,image-slider-response,4020,5f830f1644cc14447b03305c,conJudg,43,FL,dep,match,h,3.1,2,dep,3,high,dep,blue
1275,sxbrz00bs5,611,image-slider-response,3901,5ee7335388010f4c1b6bbdc2,conJudg,-42,LF,dep,match,h,3.1,2,dep,3,high,dep,blue
1275,ufb4y7bj2f,619,image-slider-response,2827,5c2ce112f422870001fcab1f,conJudg,-5,FL,dep,match,h,3.1,2,dep,3,high,dep,blue
1275,jxvpkh0u3z,643,image-slider-response,4204,5fd74512393436000a1a7323,conJudg,100,FL,dep,match,h,3.1,2,dep,3,high,dep,blue
1275,9q76krfydn,657,image-slider-response,1807,5f3d9a9f10a5f219cfe0b404,conJudg,-36,FL,dep,match,h,3.1,2,dep,3,high,dep,blue
1275,o0xz7vf2yt,641,image-slider-response,2154,5f2b196c0c610f4ec3eb5451,conJudg,100,LF,dep,match,h,3.1,2,dep,3,high,dep,blue
1275,4euvjgbfcc,603,image-slider-response,2840,600355394a113e408f54cce5,conJudg,62,LF,dep,match,h,3.1,2,dep,3,high,dep,blue
1275,823tgxfuz7,657,image-slider-response,3264,5f632ea32e85353d93872c67,conJudg,60,LF,dep,match,h,3.1,2,dep,3,high,dep,blue
1275,4xwhpmkg0h,665,image-slider-response,2551,5ef12a14ab53a21a9012b389,conJudg,-66,FL,dep,match,h,3.1,2,dep,3,high,dep,blue
1275,s80pnsgly8,647,image-slider-response,3002,5ed09b6985143f000c08b6b8,conJudg,59,FL,dep,match,h,3.1,2,dep,3,high,dep,blue
1275,cjpw7y8c1k,629,image-slider-response,2398,5efdc12f5d69f622915a97a1,conJudg,100,LF,dep,match,h,3.1,2,dep,3,high,dep,blue
1275,qnx5xathwg,679,image-slider-response,2713,5cc7f4b3854fb30001d0c13a,conJudg,-43,LF,dep,match,h,3.1,2,dep,3,high,dep,blue
1275,d1snyw7jw6,623,image-slider-response,1877,5fc13b486833fb13fef1720b,conJudg,100,LF,dep,match,h,3.1,2,dep,3,high,dep,blue
1275,aj9q5o0gf2,703,image-slider-response,3970,5b01e69aa496b300013d5b9b,conJudg,-17,FL,dep,match,h,3.1,2,dep,3,high,dep,blue
1275,9x75jv8vpf,603,image-slider-response,NA,5f34cb60fa6cf63ecf31902d,conJudg,NA,FL,dep,match,h,3.1,2,dep,3,high,dep,blue
1275,fggxxfkvfo,671,image-slider-response,3088,5fbfb86436a5de31c546f37b,conJudg,40,LF,dep,match,h,3.1,2,dep,3,high,dep,blue
1275,gcrz58pdx0,667,image-slider-response,3132,5f9b106e21189e2d3b853846,conJudg,100,LF,dep,match,h,3.1,2,dep,3,high,dep,blue
1275,d1c4anqfzp,629,image-slider-response,4175,5c5d6b55b7ce2100011fa04e,conJudg,100,FL,dep,match,h,3.1,2,dep,3,high,dep,blue
1275,kyb3lzn0xx,649,image-slider-response,152,5ee9cbbbdcf662000932fb78,conJudg,0,LF,dep,match,h,3.1,2,dep,3,high,dep,blue
1275,67zqwpqc3v,657,image-slider-response,1936,5ea3066769713007dfc5f1c3,conJudg,-58,LF,dep,match,h,3.1,2,dep,3,high,dep,blue
1275,mus0v446tm,685,image-slider-response,3145,5f8dda4538ed0614d9ac476b,conJudg,-55,LF,dep,match,h,3.1,2,dep,3,high,dep,blue
1275,wod6ma11s3,717,image-slider-response,3000,5f8228f40afba53534e6f583,conJudg,46,FL,dep,match,h,3.1,2,dep,3,high,dep,blue
1275,mvqchu948c,681,image-slider-response,3218,5b421b9ac2e3810001763252,conJudg,34,FL,dep,match,h,3.1,2,dep,3,high,dep,blue
1275,y20qp8dcxo,645,image-slider-response,3049,5f578563765fec223eb51594,conJudg,84,LF,dep,match,h,3.1,2,dep,3,high,dep,blue
1275,o7w146d4yj,677,image-slider-response,2363,5f343de4d0c07630b7f90b92,conJudg,100,LF,dep,match,h,3.1,2,dep,3,high,dep,blue
1275,yhakp9pfe9,673,image-slider-response,3880,5f57a42b46df8927414990fc,conJudg,100,LF,dep,match,h,3.1,2,dep,3,high,dep,blue
1275,371addqx7x,627,image-slider-response,5718,5d8cd4be7bd5180017d887a3,conJudg,-41,FL,dep,match,h,3.1,2,dep,3,high,dep,blue
1275,71bdswcm9k,689,image-slider-response,3728,5f591a5a9a49e211efead835,conJudg,100,LF,dep,match,h,3.1,2,dep,3,high,dep,blue
1275,fkw1vwzc6v,673,image-slider-response,3685,5f50d630390521264e606772,conJudg,100,FL,dep,match,h,3.1,2,dep,3,high,dep,blue
1275,5qj7var04h,713,image-slider-response,4833,5f4f835cea1e870397a4d295,conJudg,100,LF,dep,match,h,3.1,2,dep,3,high,dep,blue
1275,w2brxm7ay2,703,image-slider-response,5238,5f60713e595007000a8e1da7,conJudg,-29,FL,dep,match,h,3.1,2,dep,3,high,dep,blue
1275,98ysefwhzk,715,image-slider-response,2317,5f482f05cd5e5d2d1d57c1ff,conJudg,100,LF,dep,match,h,3.1,2,dep,3,high,dep,blue
1275,53gv7n4gtu,663,image-slider-response,2380,601fd3cd92f028532a257baf,conJudg,-72,LF,dep,match,h,3.1,2,dep,3,high,dep,blue
1275,rhglzajksw,695,image-slider-response,2480,5ea98f445ef6ee093f4f05ec,conJudg,100,FL,dep,match,h,3.1,2,dep,3,high,dep,blue
1275,ssktzegauz,699,image-slider-response,3192,5edba672293f3b028b70eb25,conJudg,100,LF,dep,match,h,3.1,2,dep,3,high,dep,blue
1275,8k7ujzqkju,679,image-slider-response,2579,5e8b2e599abd417d9512a877,conJudg,100,LF,dep,match,h,3.1,2,dep,3,high,dep,blue
1275,nsqbzarmrc,607,image-slider-response,3037,601e9d81606b8d337ab338e4,conJudg,100,FL,dep,match,h,3.1,2,dep,3,high,dep,blue
1275,9y1b9uh65r,619,image-slider-response,NA,5daca079bf590700167f704d,conJudg,NA,LF,dep,match,h,3.1,2,dep,3,high,dep,blue
1275,8706z1pc24,653,image-slider-response,2437,5c916456ec114b0016418dca,conJudg,52,LF,dep,match,h,3.1,2,dep,3,high,dep,blue
1275,b00qxzsc7o,643,image-slider-response,1531,5ffc250201d8312c325a16a5,conJudg,100,FL,dep,match,h,3.1,2,dep,3,high,dep,blue
1275,1gynr5ywqp,607,image-slider-response,3616,5db1bba0e20f58000b8717f6,conJudg,-43,FL,dep,match,h,3.1,2,dep,3,high,dep,blue
1275,zq33udleq5,689,image-slider-response,1762,5ec527351fc19046fdd6cd59,conJudg,-71,FL,dep,match,h,3.1,2,dep,3,high,dep,blue
1275,163k2z1uov,693,image-slider-response,4341,5f11ccbc1a1a2c08b4a99efb,conJudg,5,LF,dep,match,h,3.1,2,dep,3,high,dep,blue
1325,32gxlbaw1s,671,image-slider-response,2490,5ea2381ad0a4b71481c298e7,conJudg,-100,LF,dep,match,l,3.2,3,dep,3,low,dep,red
1325,wod6ma11s3,645,image-slider-response,2136,5f8228f40afba53534e6f583,conJudg,21,FL,dep,match,l,3.2,3,dep,3,low,dep,red
1325,cjpw7y8c1k,673,image-slider-response,3272,5efdc12f5d69f622915a97a1,conJudg,-100,LF,dep,match,l,3.2,3,dep,3,low,dep,red
1325,t5ex7zbfo2,675,image-slider-response,1456,5fd7ee02c0a4610ea7d258b4,conJudg,-100,LF,dep,match,l,3.2,3,dep,3,low,dep,red
1325,aj9q5o0gf2,667,image-slider-response,5494,5b01e69aa496b300013d5b9b,conJudg,30,FL,dep,match,l,3.2,3,dep,3,low,dep,red
1325,sxbrz00bs5,639,image-slider-response,3106,5ee7335388010f4c1b6bbdc2,conJudg,38,LF,dep,match,l,3.2,3,dep,3,low,dep,red
1325,823tgxfuz7,661,image-slider-response,3255,5f632ea32e85353d93872c67,conJudg,-61,LF,dep,match,l,3.2,3,dep,3,low,dep,red
1325,0tf06g8uzp,603,image-slider-response,3180,5b98223fbdb1df0001f1e684,conJudg,100,LF,dep,match,l,3.2,3,dep,3,low,dep,red
1325,xtbpfv8d5p,637,image-slider-response,1937,5fbade0c4594d6b7c7d96ca9,conJudg,-100,FL,dep,match,l,3.2,3,dep,3,low,dep,red
1325,o7w146d4yj,667,image-slider-response,2627,5f343de4d0c07630b7f90b92,conJudg,-24,LF,dep,match,l,3.2,3,dep,3,low,dep,red
1325,jfuskuq35s,609,image-slider-response,3897,5f50e3d60305bb088998b766,conJudg,7,LF,dep,match,l,3.2,3,dep,3,low,dep,red
1325,yhakp9pfe9,639,image-slider-response,4254,5f57a42b46df8927414990fc,conJudg,-100,LF,dep,match,l,3.2,3,dep,3,low,dep,red
1325,vkybhfxevw,619,image-slider-response,1824,5f9d4170f629422451ac7fd8,conJudg,-100,LF,dep,match,l,3.2,3,dep,3,low,dep,red
1325,cpd84kvzmq,663,image-slider-response,3060,5ed63a6d50ece703aa7bffb9,conJudg,-100,FL,dep,match,l,3.2,3,dep,3,low,dep,red
1325,4xwhpmkg0h,633,image-slider-response,2146,5ef12a14ab53a21a9012b389,conJudg,59,FL,dep,match,l,3.2,3,dep,3,low,dep,red
1325,85gul0f7qh,639,image-slider-response,2884,5e4ab1b4ca765d000edebd15,conJudg,-100,LF,dep,match,l,3.2,3,dep,3,low,dep,red
1325,kfhtlqkth4,697,image-slider-response,1996,5edf8803c008532459792282,conJudg,-33,FL,dep,match,l,3.2,3,dep,3,low,dep,red
1325,y20qp8dcxo,659,image-slider-response,3386,5f578563765fec223eb51594,conJudg,0,LF,dep,match,l,3.2,3,dep,3,low,dep,red
1325,3b8h3oor4p,641,image-slider-response,4329,5f61bbe3c18cc915aac68b32,conJudg,0,FL,dep,match,l,3.2,3,dep,3,low,dep,red
1325,g8ez0w4wvj,631,image-slider-response,1203,5ec32348079dcc17451cac16,conJudg,-100,FL,dep,match,l,3.2,3,dep,3,low,dep,red
1325,j07stgzsr2,605,image-slider-response,4333,5d77c0eb4a666c0019561a80,conJudg,-100,FL,dep,match,l,3.2,3,dep,3,low,dep,red
1325,rl7z98kzoa,621,image-slider-response,2969,5faa8121f8f5533a5c7f7a20,conJudg,100,LF,dep,match,l,3.2,3,dep,3,low,dep,red
1325,vzebe40w15,667,image-slider-response,2296,5fce9a625474c41129c10fb1,conJudg,-85,LF,dep,match,l,3.2,3,dep,3,low,dep,red
1325,pusqm5jv5t,691,image-slider-response,2892,5f477a85d919ec03cadfaddd,conJudg,65,FL,dep,match,l,3.2,3,dep,3,low,dep,red
1325,zq33udleq5,607,image-slider-response,2271,5ec527351fc19046fdd6cd59,conJudg,75,FL,dep,match,l,3.2,3,dep,3,low,dep,red
1325,qfloq0vkd1,607,image-slider-response,5661,5acb896da3ba7a0001b4e99f,conJudg,-100,LF,dep,match,l,3.2,3,dep,3,low,dep,red
1325,w2brxm7ay2,717,image-slider-response,4098,5f60713e595007000a8e1da7,conJudg,-29,FL,dep,match,l,3.2,3,dep,3,low,dep,red
1325,ffbjr4pqha,645,image-slider-response,1733,6009c27b9e9b700266fd52b5,conJudg,-100,FL,dep,match,l,3.2,3,dep,3,low,dep,red
1325,2n2kv71sum,675,image-slider-response,3300,5e67d9ed33e6a60542f4dfd7,conJudg,17,LF,dep,match,l,3.2,3,dep,3,low,dep,red
1325,t8qovvqyjq,647,image-slider-response,3069,5f89cbc45b38f5016101011c,conJudg,100,FL,dep,match,l,3.2,3,dep,3,low,dep,red
1325,x8lrz32hbv,637,image-slider-response,3566,5e7b899a6b890e0659e5e82e,conJudg,50,FL,dep,match,l,3.2,3,dep,3,low,dep,red
1325,67zqwpqc3v,653,image-slider-response,2210,5ea3066769713007dfc5f1c3,conJudg,-61,LF,dep,match,l,3.2,3,dep,3,low,dep,red
1325,e4msx463h0,669,image-slider-response,4616,5f1f04c1604e3508877cf62a,conJudg,-100,FL,dep,match,l,3.2,3,dep,3,low,dep,red
1325,53gv7n4gtu,675,image-slider-response,1997,601fd3cd92f028532a257baf,conJudg,100,LF,dep,match,l,3.2,3,dep,3,low,dep,red
1325,o0xz7vf2yt,621,image-slider-response,3730,5f2b196c0c610f4ec3eb5451,conJudg,-100,LF,dep,match,l,3.2,3,dep,3,low,dep,red
1325,pmz1eqhg0u,621,image-slider-response,4270,5f1bfe98441e2743f34fa16a,conJudg,-50,LF,dep,match,l,3.2,3,dep,3,low,dep,red
1325,d1snyw7jw6,637,image-slider-response,4221,5fc13b486833fb13fef1720b,conJudg,-72,LF,dep,match,l,3.2,3,dep,3,low,dep,red
1325,rhglzajksw,667,image-slider-response,3200,5ea98f445ef6ee093f4f05ec,conJudg,-100,FL,dep,match,l,3.2,3,dep,3,low,dep,red
1325,5g2fbehb04,623,image-slider-response,3286,591a1f4800a5650001276188,conJudg,-1,FL,dep,match,l,3.2,3,dep,3,low,dep,red
