resp,subjID,trial_index,plugin,rt,prolificID,task,learning,fribbleID,label,fribbleFeatures,correctCategory,correctFrequency,correctLabel,body,trialType,acc
1,daqg5rc8xw,542,html-button-response,1670.2199999708682,5eadc934201643479a185e59,labelPictures,LF,1_2_3_7,bim,10375,3,high,dep,blue,control,0
1,f208my9c1t,548,html-button-response,2659,5d920df12b679a00182bbc73,labelPictures,LF,1_2_3_7,bim,10375,3,high,dep,blue,control,0
1,mus0v446tm,512,html-button-response,1755.0550000015646,5f8dda4538ed0614d9ac476b,labelPictures,LF,1_2_3_7,bim,10375,3,high,dep,blue,control,0
1,t5ex7zbfo2,550,html-button-response,1760.8499999988126,5fd7ee02c0a4610ea7d258b4,labelPictures,LF,1_2_3_7,bim,10375,3,high,dep,blue,control,0
10,oqwgn1zhn1,550,html-button-response,1473,5eb5cb8ddef42c4ad1456dd9,labelPictures,FL,14_53_10_37,wug,100275,2,high,wug,purple,exp,1
10,yhakp9pfe9,532,html-button-response,2233.0300000030547,5f57a42b46df8927414990fc,labelPictures,LF,14_53_10_37,wug,100275,2,high,wug,purple,exp,1
10,x8lrz32hbv,580,html-button-response,1707.9149999999208,5e7b899a6b890e0659e5e82e,labelPictures,FL,14_53_10_37,wug,100275,2,high,wug,purple,exp,1
10,b576vfvfdd,560,html-button-response,2182,5ea85cf4ad1f760a537eadfe,labelPictures,FL,14_53_10_37,wug,100275,2,high,wug,purple,exp,1
10,32gxlbaw1s,502,html-button-response,1363.3050000062212,5ea2381ad0a4b71481c298e7,labelPictures,LF,14_53_10_37,wug,100275,2,high,wug,purple,exp,1
10,9x75jv8vpf,566,html-button-response,880.7300000007963,5f34cb60fa6cf63ecf31902d,labelPictures,FL,14_53_10_37,wug,100275,2,high,wug,purple,exp,1
10,3b8h3oor4p,576,html-button-response,1210.85000000312,5f61bbe3c18cc915aac68b32,labelPictures,FL,14_53_10_37,wug,100275,2,high,wug,purple,exp,1
10,v9kdh4rpsp,578,html-button-response,1568.135000008624,5ed14691e983f5067842fd20,labelPictures,LF,14_53_10_37,wug,100275,2,high,wug,purple,exp,1
10,fkw1vwzc6v,592,html-button-response,3190.1499999221414,5f50d630390521264e606772,labelPictures,FL,14_53_10_37,wug,100275,2,high,wug,purple,exp,1
10,dn0e1jm7ff,562,html-button-response,1133.8400000095135,5e0cf83bc12a3649f4c9ee92,labelPictures,LF,14_53_10_37,wug,100275,2,high,wug,purple,exp,1
10,581oqcuhue,544,html-button-response,1968.25,6009c2eda21be3026447d80e,labelPictures,LF,14_53_10_37,wug,100275,2,high,wug,purple,exp,1
10,qnx5xathwg,556,html-button-response,1605.0450000329874,5cc7f4b3854fb30001d0c13a,labelPictures,LF,14_53_10_37,wug,100275,2,high,wug,purple,exp,1
10,9x75jv8vpf,562,html-button-response,714.7399999994086,5f34cb60fa6cf63ecf31902d,labelPictures,FL,14_53_10_37,wug,100275,2,high,wug,purple,exp,1
10,9y1b9uh65r,538,html-button-response,1249.6700000046985,5daca079bf590700167f704d,labelPictures,LF,14_10_6_12,bim,100275,2,high,wug,purple,control,0
10,oqwgn1zhn1,496,html-button-response,1573,5eb5cb8ddef42c4ad1456dd9,labelPictures,FL,14_53_10_37,wug,100275,2,high,wug,purple,exp,1
10,55ovzw4068,544,html-button-response,2053.350000001956,5f830f1644cc14447b03305c,labelPictures,FL,14_53_10_37,wug,100275,2,high,wug,purple,exp,1
10,0tf06g8uzp,526,html-button-response,1227.0749999999534,5b98223fbdb1df0001f1e684,labelPictures,LF,14_53_10_37,wug,100275,2,high,wug,purple,exp,1
10,lpb8r8jcs5,504,html-button-response,2010.0700000184588,5dc1e79c880a2915309a8ee3,labelPictures,LF,14_53_10_37,wug,100275,2,high,wug,purple,exp,1
10,e4msx463h0,570,html-button-response,2040.549999976065,5f1f04c1604e3508877cf62a,labelPictures,FL,14_53_10_37,wug,100275,2,high,wug,purple,exp,1
10,nsqbzarmrc,516,html-button-response,1077.310000000638,601e9d81606b8d337ab338e4,labelPictures,FL,14_53_10_37,wug,100275,2,high,wug,purple,exp,1
10,0yjn7eg9zc,538,html-button-response,1038.5200000018813,5f06ee44c10cab2655ea3822,labelPictures,FL,14_53_10_37,wug,100275,2,high,wug,purple,exp,1
10,t5ex7zbfo2,576,html-button-response,1085.3050000005169,5fd7ee02c0a4610ea7d258b4,labelPictures,LF,14_53_10_37,wug,100275,2,high,wug,purple,exp,1
10,26fmzvup9c,548,html-button-response,1548.8599999807775,5e94262948e806768dfa43ed,labelPictures,FL,14_53_10_37,wug,100275,2,high,wug,purple,exp,1
10,gcrz58pdx0,554,html-button-response,1166.7749999905936,5f9b106e21189e2d3b853846,labelPictures,LF,14_53_10_37,wug,100275,2,high,wug,purple,exp,1
10,s52728tqhv,600,html-button-response,2184,6014777b8a88c449408352c5,labelPictures,LF,14_53_10_37,wug,100275,2,high,wug,purple,exp,1
10,ssktzegauz,542,html-button-response,2096.235000062734,5edba672293f3b028b70eb25,labelPictures,LF,14_53_10_37,wug,100275,2,high,wug,purple,exp,1
10,d1snyw7jw6,490,html-button-response,1302.0499999984168,5fc13b486833fb13fef1720b,labelPictures,LF,14_53_10_37,wug,100275,2,high,wug,purple,exp,1
10,fkw1vwzc6v,496,html-button-response,2001.1849999427795,5f50d630390521264e606772,labelPictures,FL,14_53_10_37,wug,100275,2,high,wug,purple,exp,1
10,38cgqt2jvy,552,html-button-response,1464.864999987185,5f83138efa73fa44e23c5237,labelPictures,FL,14_10_6_12,bim,100275,2,high,wug,purple,control,0
10,d1c4anqfzp,516,html-button-response,1816,5c5d6b55b7ce2100011fa04e,labelPictures,FL,14_53_10_37,wug,100275,2,high,wug,purple,exp,1
10,t5ex7zbfo2,562,html-button-response,896.994999999064,5fd7ee02c0a4610ea7d258b4,labelPictures,LF,14_53_10_37,wug,100275,2,high,wug,purple,exp,1
10,0yjn7eg9zc,496,html-button-response,922.0000000059372,5f06ee44c10cab2655ea3822,labelPictures,FL,14_53_10_37,wug,100275,2,high,wug,purple,exp,1
10,sxbrz00bs5,512,html-button-response,1447,5ee7335388010f4c1b6bbdc2,labelPictures,LF,14_53_10_37,wug,100275,2,high,wug,purple,exp,1
10,gcrz58pdx0,530,html-button-response,2645.7400000072084,5f9b106e21189e2d3b853846,labelPictures,LF,14_53_10_37,wug,100275,2,high,wug,purple,exp,1
10,d1c4anqfzp,566,html-button-response,1786,5c5d6b55b7ce2100011fa04e,labelPictures,FL,14_53_10_37,wug,100275,2,high,wug,purple,exp,1
10,3b8h3oor4p,498,html-button-response,1858.330000017304,5f61bbe3c18cc915aac68b32,labelPictures,FL,14_53_10_37,wug,100275,2,high,wug,purple,exp,1
10,b00qxzsc7o,504,html-button-response,2199.899999999674,5ffc250201d8312c325a16a5,labelPictures,FL,14_53_10_37,wug,100275,2,high,wug,purple,exp,1
10,kyb3lzn0xx,584,html-button-response,75.85999998264015,5ee9cbbbdcf662000932fb78,labelPictures,LF,14_53_10_37,wug,100275,2,high,wug,purple,exp,1
10,r4145wj5y7,542,html-button-response,1968.9049999996787,5f78b0e3b43f410c88d3af45,labelPictures,LF,14_53_10_37,wug,100275,2,high,wug,purple,exp,1
10,53gv7n4gtu,514,html-button-response,2781.4499999985565,601fd3cd92f028532a257baf,labelPictures,LF,14_10_6_12,bim,100275,2,high,wug,purple,control,0
10,daqg5rc8xw,562,html-button-response,1168.9450000412762,5eadc934201643479a185e59,labelPictures,LF,14_53_10_37,wug,100275,2,high,wug,purple,exp,1
10,5qj7var04h,528,html-button-response,1176.7199999995064,5f4f835cea1e870397a4d295,labelPictures,LF,14_53_10_37,wug,100275,2,high,wug,purple,exp,1
10,5urksolxqo,498,html-button-response,1204.6599999885075,5d10fe33fbbf3d001a56d936,labelPictures,LF,14_53_10_37,wug,100275,2,high,wug,purple,exp,1
10,b00qxzsc7o,530,html-button-response,1389.004999997327,5ffc250201d8312c325a16a5,labelPictures,FL,14_53_10_37,wug,100275,2,high,wug,purple,exp,1
10,371addqx7x,556,html-button-response,2658.755000040401,5d8cd4be7bd5180017d887a3,labelPictures,FL,14_53_10_37,wug,100275,2,high,wug,purple,exp,1
10,371addqx7x,562,html-button-response,2706.56500000041,5d8cd4be7bd5180017d887a3,labelPictures,FL,14_53_10_37,wug,100275,2,high,wug,purple,exp,1
10,nsqbzarmrc,494,html-button-response,1350.1849999993574,601e9d81606b8d337ab338e4,labelPictures,FL,14_53_10_37,wug,100275,2,high,wug,purple,exp,1
10,s0xp76sxy4,582,html-button-response,1046.4200000278652,5f68a907efe6b000080540be,labelPictures,LF,14_53_10_37,wug,100275,2,high,wug,purple,exp,1
10,jxvpkh0u3z,496,html-button-response,725.0749999657273,5fd74512393436000a1a7323,labelPictures,FL,14_53_10_37,wug,100275,2,high,wug,purple,exp,1
10,rhglzajksw,524,html-button-response,2032.3649999918416,5ea98f445ef6ee093f4f05ec,labelPictures,FL,14_53_10_37,wug,100275,2,high,wug,purple,exp,1
10,2n2kv71sum,500,html-button-response,1323.7799999769777,5e67d9ed33e6a60542f4dfd7,labelPictures,LF,14_53_10_37,wug,100275,2,high,wug,purple,exp,1
10,6j0z0b0c72,494,html-button-response,1986.1849999870174,5ea44104a980d23d4f21f7ad,labelPictures,LF,14_53_10_37,wug,100275,2,high,wug,purple,exp,1
10,x8lrz32hbv,546,html-button-response,1708.7199999996228,5e7b899a6b890e0659e5e82e,labelPictures,FL,14_53_10_37,wug,100275,2,high,wug,purple,exp,1
10,581oqcuhue,564,html-button-response,1740.8449999997392,6009c2eda21be3026447d80e,labelPictures,LF,14_53_10_37,wug,100275,2,high,wug,purple,exp,1
10,32gxlbaw1s,520,html-button-response,868.6849999940023,5ea2381ad0a4b71481c298e7,labelPictures,LF,14_53_10_37,wug,100275,2,high,wug,purple,exp,1
10,r4145wj5y7,562,html-button-response,2016.2650000002468,5f78b0e3b43f410c88d3af45,labelPictures,LF,14_53_10_37,wug,100275,2,high,wug,purple,exp,1
10,f208my9c1t,590,html-button-response,1141,5d920df12b679a00182bbc73,labelPictures,LF,14_53_10_37,wug,100275,2,high,wug,purple,exp,1
10,yc8mkz3uaa,490,html-button-response,1855.1399999996647,5eaeb8b513f83a57d35db285,labelPictures,LF,14_53_10_37,wug,100275,2,high,wug,purple,exp,1
10,gqq2p40hu9,510,html-button-response,1218.9800000013784,5d41aa9ec61bc300012c73f6,labelPictures,LF,14_53_10_37,wug,100275,2,high,wug,purple,exp,1
10,ssktzegauz,580,html-button-response,989.0050003305078,5edba672293f3b028b70eb25,labelPictures,LF,14_53_10_37,wug,100275,2,high,wug,purple,exp,1
10,26fmzvup9c,540,html-button-response,2564.8099998943508,5e94262948e806768dfa43ed,labelPictures,FL,14_53_10_37,wug,100275,2,high,wug,purple,exp,1
10,jxvpkh0u3z,590,html-button-response,2052.490000030957,5fd74512393436000a1a7323,labelPictures,FL,14_53_10_37,wug,100275,2,high,wug,purple,exp,1
10,xtbpfv8d5p,588,html-button-response,789.1650000233203,5fbade0c4594d6b7c7d96ca9,labelPictures,FL,14_53_10_37,wug,100275,2,high,wug,purple,exp,1
10,823tgxfuz7,596,html-button-response,1420.249999999185,5f632ea32e85353d93872c67,labelPictures,LF,14_53_10_37,wug,100275,2,high,wug,purple,exp,1
10,f208my9c1t,556,html-button-response,1383,5d920df12b679a00182bbc73,labelPictures,LF,14_53_10_37,wug,100275,2,high,wug,purple,exp,1
10,xtbpfv8d5p,518,html-button-response,829.6350000021048,5fbade0c4594d6b7c7d96ca9,labelPictures,FL,14_53_10_37,wug,100275,2,high,wug,purple,exp,1
10,daqg5rc8xw,526,html-button-response,1025.4900001455098,5eadc934201643479a185e59,labelPictures,LF,14_53_10_37,wug,100275,2,high,wug,purple,exp,1
10,yc8mkz3uaa,502,html-button-response,1028.455000021495,5eaeb8b513f83a57d35db285,labelPictures,LF,14_53_10_37,wug,100275,2,high,wug,purple,exp,1
10,s52728tqhv,538,html-button-response,1579,6014777b8a88c449408352c5,labelPictures,LF,14_53_10_37,wug,100275,2,high,wug,purple,exp,1
10,0tf06g8uzp,568,html-button-response,1788.4199999999255,5b98223fbdb1df0001f1e684,labelPictures,LF,14_53_10_37,wug,100275,2,high,wug,purple,exp,1
10,zq33udleq5,586,html-button-response,843.8700000001118,5ec527351fc19046fdd6cd59,labelPictures,FL,14_53_10_37,wug,100275,2,high,wug,purple,exp,1
10,sxbrz00bs5,540,html-button-response,1214,5ee7335388010f4c1b6bbdc2,labelPictures,LF,14_53_10_37,wug,100275,2,high,wug,purple,exp,1
10,vkybhfxevw,584,html-button-response,1720.9399999992456,5f9d4170f629422451ac7fd8,labelPictures,LF,14_53_10_37,wug,100275,2,high,wug,purple,exp,1
10,5urksolxqo,546,html-button-response,2548.429999995278,5d10fe33fbbf3d001a56d936,labelPictures,LF,14_53_10_37,wug,100275,2,high,wug,purple,exp,1
10,4xwhpmkg0h,504,html-button-response,1833.9299999998184,5ef12a14ab53a21a9012b389,labelPictures,FL,14_53_10_37,wug,100275,2,high,wug,purple,exp,1
10,823tgxfuz7,538,html-button-response,1101.5800000024028,5f632ea32e85353d93872c67,labelPictures,LF,14_53_10_37,wug,100275,2,high,wug,purple,exp,1
10,s80pnsgly8,588,html-button-response,2130.0000000046566,5ed09b6985143f000c08b6b8,labelPictures,FL,14_53_10_37,wug,100275,2,high,wug,purple,exp,1
10,4xwhpmkg0h,514,html-button-response,2006.0949999997392,5ef12a14ab53a21a9012b389,labelPictures,FL,14_53_10_37,wug,100275,2,high,wug,purple,exp,1
10,dn0e1jm7ff,508,html-button-response,2151.720000008936,5e0cf83bc12a3649f4c9ee92,labelPictures,LF,14_53_10_37,wug,100275,2,high,wug,purple,exp,1
10,yhakp9pfe9,574,html-button-response,3107.8100000013364,5f57a42b46df8927414990fc,labelPictures,LF,14_53_10_37,wug,100275,2,high,wug,purple,exp,1
10,z4xhznw88z,582,html-button-response,548.9900000029011,5fae68d5b74c182cacbe5d6a,labelPictures,LF,14_53_10_37,wug,100275,2,high,wug,purple,exp,1
10,mus0v446tm,496,html-button-response,975.1350000005914,5f8dda4538ed0614d9ac476b,labelPictures,LF,14_53_10_37,wug,100275,2,high,wug,purple,exp,1
10,d1snyw7jw6,528,html-button-response,1133.7249999924097,5fc13b486833fb13fef1720b,labelPictures,LF,14_53_10_37,wug,100275,2,high,wug,purple,exp,1
10,v9kdh4rpsp,586,html-button-response,1418.1049999897368,5ed14691e983f5067842fd20,labelPictures,LF,14_53_10_37,wug,100275,2,high,wug,purple,exp,1
10,q3zadoj47e,574,html-button-response,1157.139999999432,5e47ad846c3d4425c60ccbe5,labelPictures,FL,14_53_10_37,wug,100275,2,high,wug,purple,exp,1
10,5qj7var04h,538,html-button-response,1745.8699999988312,5f4f835cea1e870397a4d295,labelPictures,LF,14_53_10_37,wug,100275,2,high,wug,purple,exp,1
10,s80pnsgly8,558,html-button-response,1755.9999999939464,5ed09b6985143f000c08b6b8,labelPictures,FL,14_53_10_37,wug,100275,2,high,wug,purple,exp,1
10,zq33udleq5,548,html-button-response,801.9650000000838,5ec527351fc19046fdd6cd59,labelPictures,FL,14_53_10_37,wug,100275,2,high,wug,purple,exp,1
10,f9gvt2ubve,544,html-button-response,2163,5f529cd9e0a90c58773ec3fe,labelPictures,LF,14_53_10_37,wug,100275,2,high,wug,purple,exp,1
10,2n2kv71sum,524,html-button-response,1011.8699999875389,5e67d9ed33e6a60542f4dfd7,labelPictures,LF,14_53_10_37,wug,100275,2,high,wug,purple,exp,1
10,55ovzw4068,538,html-button-response,764.9600000004284,5f830f1644cc14447b03305c,labelPictures,FL,14_53_10_37,wug,100275,2,high,wug,purple,exp,1
10,lpb8r8jcs5,556,html-button-response,1827.9050000128336,5dc1e79c880a2915309a8ee3,labelPictures,LF,14_53_10_37,wug,100275,2,high,wug,purple,exp,1
10,q3zadoj47e,494,html-button-response,1438.689999999071,5e47ad846c3d4425c60ccbe5,labelPictures,FL,14_53_10_37,wug,100275,2,high,wug,purple,exp,1
10,rhglzajksw,542,html-button-response,3338.1499999959487,5ea98f445ef6ee093f4f05ec,labelPictures,FL,14_53_10_37,wug,100275,2,high,wug,purple,exp,1
10,yhakp9pfe9,592,html-button-response,2441.0099999950035,5f57a42b46df8927414990fc,labelPictures,LF,14_10_6_12,bim,100275,2,high,wug,purple,control,0
10,f9gvt2ubve,496,html-button-response,1877,5f529cd9e0a90c58773ec3fe,labelPictures,LF,14_53_10_37,wug,100275,2,high,wug,purple,exp,1
10,z4xhznw88z,600,html-button-response,899.170000000624,5fae68d5b74c182cacbe5d6a,labelPictures,LF,14_53_10_37,wug,100275,2,high,wug,purple,exp,1
10,98ysefwhzk,534,html-button-response,1861.6100000217557,5f482f05cd5e5d2d1d57c1ff,labelPictures,LF,14_53_10_37,wug,100275,2,high,wug,purple,exp,1
10,vkybhfxevw,560,html-button-response,1730.2049999998417,5f9d4170f629422451ac7fd8,labelPictures,LF,14_53_10_37,wug,100275,2,high,wug,purple,exp,1
10,mus0v446tm,548,html-button-response,970.1149999963818,5f8dda4538ed0614d9ac476b,labelPictures,LF,14_53_10_37,wug,100275,2,high,wug,purple,exp,1
11,vkybhfxevw,596,html-button-response,911.4900000022026,5f9d4170f629422451ac7fd8,labelPictures,LF,11_9_5_16,bim,110400,4,low,bim,lightblue,control,1
11,oqwgn1zhn1,494,html-button-response,2369,5eb5cb8ddef42c4ad1456dd9,labelPictures,FL,11_9_5_16,bim,110400,4,low,bim,lightblue,control,1
11,98ysefwhzk,522,html-button-response,1409.7999999648891,5f482f05cd5e5d2d1d57c1ff,labelPictures,LF,11_9_5_16,bim,110400,4,low,bim,lightblue,control,1
11,f9gvt2ubve,592,html-button-response,1395,5f529cd9e0a90c58773ec3fe,labelPictures,LF,11_9_5_16,bim,110400,4,low,bim,lightblue,control,1
11,371addqx7x,494,html-button-response,2771.699999982957,5d8cd4be7bd5180017d887a3,labelPictures,FL,29_11_30_39,tob,110400,4,low,bim,lightblue,exp,0
11,kyb3lzn0xx,510,html-button-response,685.5800000485033,5ee9cbbbdcf662000932fb78,labelPictures,LF,29_11_30_39,tob,110400,4,low,bim,lightblue,exp,0
11,d1snyw7jw6,508,html-button-response,1117.2950000036508,5fc13b486833fb13fef1720b,labelPictures,LF,11_9_5_16,bim,110400,4,low,bim,lightblue,control,1
11,r4145wj5y7,500,html-button-response,1872.3800000007031,5f78b0e3b43f410c88d3af45,labelPictures,LF,11_9_5_16,bim,110400,4,low,bim,lightblue,control,1
11,jxvpkh0u3z,514,html-button-response,948.9199999952689,5fd74512393436000a1a7323,labelPictures,FL,11_9_5_16,bim,110400,4,low,bim,lightblue,control,1
11,32gxlbaw1s,556,html-button-response,1284.0250000008382,5ea2381ad0a4b71481c298e7,labelPictures,LF,11_9_5_16,bim,110400,4,low,bim,lightblue,control,1
11,9x75jv8vpf,574,html-button-response,2867.714999996708,5f34cb60fa6cf63ecf31902d,labelPictures,FL,29_11_30_39,tob,110400,4,low,bim,lightblue,exp,0
11,38cgqt2jvy,490,html-button-response,1706.3600000692531,5f83138efa73fa44e23c5237,labelPictures,FL,29_11_30_39,tob,110400,4,low,bim,lightblue,exp,0
11,581oqcuhue,490,html-button-response,1606.2099999999627,6009c2eda21be3026447d80e,labelPictures,LF,11_9_5_16,bim,110400,4,low,bim,lightblue,control,1
11,2n2kv71sum,600,html-button-response,1329.5449999859557,5e67d9ed33e6a60542f4dfd7,labelPictures,LF,11_9_5_16,bim,110400,4,low,bim,lightblue,control,1
11,5qj7var04h,594,html-button-response,3203.255000000354,5f4f835cea1e870397a4d295,labelPictures,LF,11_9_5_16,bim,110400,4,low,bim,lightblue,control,1
11,t5ex7zbfo2,526,html-button-response,2039.1750000017928,5fd7ee02c0a4610ea7d258b4,labelPictures,LF,52_12_6_11,dep,110400,4,high,bim,lightblue,exp,0
11,jfuskuq35s,502,html-button-response,1049,5f50e3d60305bb088998b766,labelPictures,LF,52_12_6_11,dep,110400,4,high,bim,lightblue,exp,0
11,371addqx7x,500,html-button-response,1357.395000057295,5d8cd4be7bd5180017d887a3,labelPictures,FL,11_9_5_16,bim,110400,4,low,bim,lightblue,control,1
11,vzebe40w15,596,html-button-response,1302.994999976363,5fce9a625474c41129c10fb1,labelPictures,LF,29_11_30_39,tob,110400,4,low,bim,lightblue,exp,0
11,yhakp9pfe9,576,html-button-response,2639.835000009043,5f57a42b46df8927414990fc,labelPictures,LF,11_9_5_16,bim,110400,4,low,bim,lightblue,control,1
11,v9kdh4rpsp,496,html-button-response,3011.590000009164,5ed14691e983f5067842fd20,labelPictures,LF,11_9_5_16,bim,110400,4,low,bim,lightblue,control,1
11,823tgxfuz7,502,html-button-response,1852.8950000000186,5f632ea32e85353d93872c67,labelPictures,LF,11_9_5_16,bim,110400,4,low,bim,lightblue,control,1
11,6j0z0b0c72,506,html-button-response,2537.4850000080187,5ea44104a980d23d4f21f7ad,labelPictures,LF,11_9_5_16,bim,110400,4,low,bim,lightblue,control,1
11,s52728tqhv,592,html-button-response,1315,6014777b8a88c449408352c5,labelPictures,LF,11_9_5_16,bim,110400,4,low,bim,lightblue,control,1
11,3b8h3oor4p,592,html-button-response,1483.654999989085,5f61bbe3c18cc915aac68b32,labelPictures,FL,11_9_5_16,bim,110400,4,low,bim,lightblue,control,1
11,qnx5xathwg,526,html-button-response,2060.5450000148267,5cc7f4b3854fb30001d0c13a,labelPictures,LF,29_11_30_39,tob,110400,4,low,bim,lightblue,exp,0
11,jfuskuq35s,558,html-button-response,1320,5f50e3d60305bb088998b766,labelPictures,LF,11_9_5_16,bim,110400,4,low,bim,lightblue,control,1
11,t5ex7zbfo2,566,html-button-response,1915.665000000503,5fd7ee02c0a4610ea7d258b4,labelPictures,LF,52_12_6_11,dep,110400,4,high,bim,lightblue,exp,0
11,sxbrz00bs5,584,html-button-response,2907,5ee7335388010f4c1b6bbdc2,labelPictures,LF,52_12_6_11,dep,110400,4,high,bim,lightblue,exp,0
11,e72zvev590,512,html-button-response,1130.78000000678,5e6617541d7e1a3885c45e85,labelPictures,FL,11_9_5_16,bim,110400,4,low,bim,lightblue,control,1
11,gcrz58pdx0,590,html-button-response,1669.9350000126287,5f9b106e21189e2d3b853846,labelPictures,LF,11_9_5_16,bim,110400,4,low,bim,lightblue,control,1
11,vzebe40w15,530,html-button-response,969.5550000178628,5fce9a625474c41129c10fb1,labelPictures,LF,29_11_30_39,tob,110400,4,low,bim,lightblue,exp,0
11,rhglzajksw,518,html-button-response,1599.6400000003632,5ea98f445ef6ee093f4f05ec,labelPictures,FL,11_9_5_16,bim,110400,4,low,bim,lightblue,control,1
11,53gv7n4gtu,540,html-button-response,1447.745000001276,601fd3cd92f028532a257baf,labelPictures,LF,29_11_30_39,tob,110400,4,low,bim,lightblue,exp,0
11,b00qxzsc7o,592,html-button-response,1368.4199999988778,5ffc250201d8312c325a16a5,labelPictures,FL,11_9_5_16,bim,110400,4,low,bim,lightblue,control,1
11,b576vfvfdd,506,html-button-response,877,5ea85cf4ad1f760a537eadfe,labelPictures,FL,11_9_5_16,bim,110400,4,low,bim,lightblue,control,1
11,0yjn7eg9zc,522,html-button-response,1620.8350000088103,5f06ee44c10cab2655ea3822,labelPictures,FL,52_12_6_11,dep,110400,4,high,bim,lightblue,exp,0
11,yc8mkz3uaa,584,html-button-response,1079.314999980852,5eaeb8b513f83a57d35db285,labelPictures,LF,11_9_5_16,bim,110400,4,low,bim,lightblue,control,1
11,53gv7n4gtu,526,html-button-response,913.5949999999721,601fd3cd92f028532a257baf,labelPictures,LF,29_11_30_39,tob,110400,4,low,bim,lightblue,exp,0
11,e4msx463h0,550,html-button-response,1338.8949999934994,5f1f04c1604e3508877cf62a,labelPictures,FL,11_9_5_16,bim,110400,4,low,bim,lightblue,control,1
11,cpd84kvzmq,596,html-button-response,1409.9200000055134,5ed63a6d50ece703aa7bffb9,labelPictures,FL,11_9_5_16,bim,110400,4,low,bim,lightblue,control,1
11,0tf06g8uzp,594,html-button-response,1522.9350000000559,5b98223fbdb1df0001f1e684,labelPictures,LF,11_9_5_16,bim,110400,4,low,bim,lightblue,control,1
11,zq33udleq5,592,html-button-response,1182.0250000001397,5ec527351fc19046fdd6cd59,labelPictures,FL,11_9_5_16,bim,110400,4,low,bim,lightblue,control,1
11,nsqbzarmrc,580,html-button-response,965.6050000012619,601e9d81606b8d337ab338e4,labelPictures,FL,11_9_5_16,bim,110400,4,low,bim,lightblue,control,1
11,5urksolxqo,516,html-button-response,1043.455000006361,5d10fe33fbbf3d001a56d936,labelPictures,LF,11_9_5_16,bim,110400,4,low,bim,lightblue,control,1
11,vzebe40w15,588,html-button-response,931.6000000108033,5fce9a625474c41129c10fb1,labelPictures,LF,11_9_5_16,bim,110400,4,low,bim,lightblue,control,1
11,z4xhznw88z,532,html-button-response,1105.2700000000186,5fae68d5b74c182cacbe5d6a,labelPictures,LF,11_9_5_16,bim,110400,4,low,bim,lightblue,control,1
11,dn0e1jm7ff,516,html-button-response,1643.0949999921722,5e0cf83bc12a3649f4c9ee92,labelPictures,LF,11_9_5_16,bim,110400,4,low,bim,lightblue,control,1
11,zt96waez4c,492,html-button-response,881.5600000016857,5daca66b71a51b00113172ce,labelPictures,LF,52_12_6_11,dep,110400,4,high,bim,lightblue,exp,0
11,9x75jv8vpf,582,html-button-response,1339.834999998915,5f34cb60fa6cf63ecf31902d,labelPictures,FL,29_11_30_39,tob,110400,4,low,bim,lightblue,exp,0
11,sxbrz00bs5,490,html-button-response,2351,5ee7335388010f4c1b6bbdc2,labelPictures,LF,29_11_30_39,tob,110400,4,low,bim,lightblue,exp,0
11,s80pnsgly8,564,html-button-response,2604.9999999813735,5ed09b6985143f000c08b6b8,labelPictures,FL,11_9_5_16,bim,110400,4,low,bim,lightblue,control,1
11,lpb8r8jcs5,582,html-button-response,2130.3550000011455,5dc1e79c880a2915309a8ee3,labelPictures,LF,11_9_5_16,bim,110400,4,low,bim,lightblue,control,1
11,26fmzvup9c,512,html-button-response,1318.8099996186793,5e94262948e806768dfa43ed,labelPictures,FL,11_9_5_16,bim,110400,4,low,bim,lightblue,control,1
11,x8lrz32hbv,544,html-button-response,1116.1400000001304,5e7b899a6b890e0659e5e82e,labelPictures,FL,29_11_30_39,tob,110400,4,low,bim,lightblue,exp,0
11,55ovzw4068,574,html-button-response,2098.1449999962933,5f830f1644cc14447b03305c,labelPictures,FL,11_9_5_16,bim,110400,4,low,bim,lightblue,control,1
11,d1c4anqfzp,490,html-button-response,1810,5c5d6b55b7ce2100011fa04e,labelPictures,FL,11_9_5_16,bim,110400,4,low,bim,lightblue,control,1
11,vzebe40w15,538,html-button-response,2097.845000011148,5fce9a625474c41129c10fb1,labelPictures,LF,52_12_6_11,dep,110400,4,high,bim,lightblue,exp,0
11,ssktzegauz,590,html-button-response,762.4900001101196,5edba672293f3b028b70eb25,labelPictures,LF,11_9_5_16,bim,110400,4,low,bim,lightblue,control,1
12,daqg5rc8xw,490,html-button-response,1759.7799999639392,5eadc934201643479a185e59,labelPictures,LF,52_12_6_11,dep,120175,1,high,tob,red,exp,0
12,4xwhpmkg0h,594,html-button-response,1205.74000000034,5ef12a14ab53a21a9012b389,labelPictures,FL,52_12_6_11,dep,120175,1,high,tob,red,exp,0
12,vzebe40w15,560,html-button-response,1023.2650000252761,5fce9a625474c41129c10fb1,labelPictures,LF,52_47_51_12,dep,120175,1,high,tob,red,exp,0
12,9x75jv8vpf,556,html-button-response,1077.4549999987357,5f34cb60fa6cf63ecf31902d,labelPictures,FL,52_12_6_11,dep,120175,1,high,tob,red,exp,0
12,vzebe40w15,574,html-button-response,2187.4900000111666,5fce9a625474c41129c10fb1,labelPictures,LF,52_13_12_36,wug,120175,1,high,tob,red,exp,0
12,x8lrz32hbv,556,html-button-response,1829.6500000006054,5e7b899a6b890e0659e5e82e,labelPictures,FL,51_52_13_12,wug,120175,1,high,tob,red,exp,0
12,qnx5xathwg,554,html-button-response,693.3199999621138,5cc7f4b3854fb30001d0c13a,labelPictures,LF,51_52_13_12,wug,120175,1,high,tob,red,exp,0
12,qnx5xathwg,558,html-button-response,508.960000006482,5cc7f4b3854fb30001d0c13a,labelPictures,LF,52_12_6_11,dep,120175,1,high,tob,red,exp,0
12,jfuskuq35s,564,html-button-response,1839,5f50e3d60305bb088998b766,labelPictures,LF,52_13_12_36,wug,120175,1,high,tob,red,exp,0
12,vzebe40w15,554,html-button-response,1233.9000000210945,5fce9a625474c41129c10fb1,labelPictures,LF,52_12_6_11,dep,120175,1,high,tob,red,exp,0
12,53gv7n4gtu,576,html-button-response,1055.5999999997439,601fd3cd92f028532a257baf,labelPictures,LF,52_12_6_11,dep,120175,1,high,tob,red,exp,0
12,38cgqt2jvy,570,html-button-response,2016.5600000182167,5f83138efa73fa44e23c5237,labelPictures,FL,52_12_6_11,dep,120175,1,high,tob,red,exp,0
12,0tf06g8uzp,520,html-button-response,1055.3299999998417,5b98223fbdb1df0001f1e684,labelPictures,LF,52_12_6_11,dep,120175,1,high,tob,red,exp,0
12,38cgqt2jvy,576,html-button-response,1754.7649999614805,5f83138efa73fa44e23c5237,labelPictures,FL,51_52_13_12,wug,120175,1,high,tob,red,exp,0
12,x8lrz32hbv,538,html-button-response,2418.560000000056,5e7b899a6b890e0659e5e82e,labelPictures,FL,52_12_6_11,dep,120175,1,high,tob,red,exp,0
12,sxbrz00bs5,568,html-button-response,1968,5ee7335388010f4c1b6bbdc2,labelPictures,LF,52_47_51_12,dep,120175,1,high,tob,red,exp,0
12,zq33udleq5,576,html-button-response,2101.744999999879,5ec527351fc19046fdd6cd59,labelPictures,FL,52_12_6_11,dep,120175,1,high,tob,red,exp,0
12,daqg5rc8xw,522,html-button-response,3103.554999921471,5eadc934201643479a185e59,labelPictures,LF,52_47_51_12,dep,120175,1,high,tob,red,exp,0
12,qnx5xathwg,508,html-button-response,732.7649999642745,5cc7f4b3854fb30001d0c13a,labelPictures,LF,52_12_6_11,dep,120175,1,high,tob,red,exp,0
12,9x75jv8vpf,596,html-button-response,1141.0550000000512,5f34cb60fa6cf63ecf31902d,labelPictures,FL,52_47_51_12,dep,120175,1,high,tob,red,exp,0
12,z4xhznw88z,560,html-button-response,1799.4199999993434,5fae68d5b74c182cacbe5d6a,labelPictures,LF,52_47_51_12,dep,120175,1,high,tob,red,exp,0
12,s80pnsgly8,520,html-button-response,2297.000000020489,5ed09b6985143f000c08b6b8,labelPictures,FL,52_12_6_11,dep,120175,1,high,tob,red,exp,0
12,zq33udleq5,500,html-button-response,1345.1099999997532,5ec527351fc19046fdd6cd59,labelPictures,FL,52_47_51_12,dep,120175,1,high,tob,red,exp,0
12,v9kdh4rpsp,522,html-button-response,1989.0299999970011,5ed14691e983f5067842fd20,labelPictures,LF,52_47_51_12,dep,120175,1,high,tob,red,exp,0
12,4xwhpmkg0h,526,html-button-response,2870.5350000000326,5ef12a14ab53a21a9012b389,labelPictures,FL,52_12_6_11,dep,120175,1,high,tob,red,exp,0
12,qnx5xathwg,510,html-button-response,1277.1950000314973,5cc7f4b3854fb30001d0c13a,labelPictures,LF,51_52_13_12,wug,120175,1,high,tob,red,exp,0
12,zt96waez4c,528,html-button-response,1894.4549999996088,5daca66b71a51b00113172ce,labelPictures,LF,52_12_6_11,dep,120175,1,high,tob,red,exp,0
12,r4145wj5y7,572,html-button-response,1811.2149999997346,5f78b0e3b43f410c88d3af45,labelPictures,LF,51_52_13_12,wug,120175,1,high,tob,red,exp,0
12,v9kdh4rpsp,552,html-button-response,1825.7100000046194,5ed14691e983f5067842fd20,labelPictures,LF,52_47_51_12,dep,120175,1,high,tob,red,exp,0
12,kyb3lzn0xx,516,html-button-response,773.8949998747557,5ee9cbbbdcf662000932fb78,labelPictures,LF,52_12_6_11,dep,120175,1,high,tob,red,exp,0
12,53gv7n4gtu,580,html-button-response,1848.9499999996042,601fd3cd92f028532a257baf,labelPictures,LF,52_47_51_12,dep,120175,1,high,tob,red,exp,0
12,5urksolxqo,542,html-button-response,1812.4799999932293,5d10fe33fbbf3d001a56d936,labelPictures,LF,52_12_6_11,dep,120175,1,high,tob,red,exp,0
12,qnx5xathwg,582,html-button-response,1884.7999999998137,5cc7f4b3854fb30001d0c13a,labelPictures,LF,52_13_12_36,wug,120175,1,high,tob,red,exp,0
12,s80pnsgly8,540,html-button-response,2377.0000000367872,5ed09b6985143f000c08b6b8,labelPictures,FL,52_47_51_12,dep,120175,1,high,tob,red,exp,0
12,vzebe40w15,534,html-button-response,3252.8499999898486,5fce9a625474c41129c10fb1,labelPictures,LF,52_13_12_36,wug,120175,1,high,tob,red,exp,0
12,sxbrz00bs5,500,html-button-response,3127,5ee7335388010f4c1b6bbdc2,labelPictures,LF,52_12_6_11,dep,120175,1,high,tob,red,exp,0
12,5urksolxqo,586,html-button-response,1563.2449999975506,5d10fe33fbbf3d001a56d936,labelPictures,LF,52_47_51_12,dep,120175,1,high,tob,red,exp,0
12,v9kdh4rpsp,494,html-button-response,1307.4299999861978,5ed14691e983f5067842fd20,labelPictures,LF,52_12_6_11,dep,120175,1,high,tob,red,exp,0
12,lpb8r8jcs5,576,html-button-response,1684.1849999909755,5dc1e79c880a2915309a8ee3,labelPictures,LF,52_12_6_11,dep,120175,1,high,tob,red,exp,0
12,vzebe40w15,598,html-button-response,1304.8649999836925,5fce9a625474c41129c10fb1,labelPictures,LF,51_52_13_12,wug,120175,1,high,tob,red,exp,0
12,zq33udleq5,508,html-button-response,1065.0000000001164,5ec527351fc19046fdd6cd59,labelPictures,FL,52_12_6_11,dep,120175,1,high,tob,red,exp,0
12,98ysefwhzk,524,html-button-response,1985.294999962207,5f482f05cd5e5d2d1d57c1ff,labelPictures,LF,52_47_51_12,dep,120175,1,high,tob,red,exp,0
12,38cgqt2jvy,588,html-button-response,740.0599999818951,5f83138efa73fa44e23c5237,labelPictures,FL,52_12_6_11,dep,120175,1,high,tob,red,exp,0
12,v9kdh4rpsp,534,html-button-response,2589.3050000304356,5ed14691e983f5067842fd20,labelPictures,LF,52_12_6_11,dep,120175,1,high,tob,red,exp,0
12,38cgqt2jvy,598,html-button-response,1814.7350000217557,5f83138efa73fa44e23c5237,labelPictures,FL,52_47_51_12,dep,120175,1,high,tob,red,exp,0
12,53gv7n4gtu,528,html-button-response,1080.519999999553,601fd3cd92f028532a257baf,labelPictures,LF,52_47_51_12,dep,120175,1,high,tob,red,exp,0
12,x8lrz32hbv,570,html-button-response,612.8400000006659,5e7b899a6b890e0659e5e82e,labelPictures,FL,52_12_6_11,dep,120175,1,high,tob,red,exp,0
12,9x75jv8vpf,594,html-button-response,1184.255000000121,5f34cb60fa6cf63ecf31902d,labelPictures,FL,52_12_6_11,dep,120175,1,high,tob,red,exp,0
12,x8lrz32hbv,548,html-button-response,2132.184999999474,5e7b899a6b890e0659e5e82e,labelPictures,FL,52_13_12_36,wug,120175,1,high,tob,red,exp,0
12,zq33udleq5,532,html-button-response,1009.7599999998929,5ec527351fc19046fdd6cd59,labelPictures,FL,52_47_51_12,dep,120175,1,high,tob,red,exp,0
13,zq33udleq5,554,html-button-response,884.2250000002095,5ec527351fc19046fdd6cd59,labelPictures,FL,52_13_12_36,wug,130375,3,high,dep,blue,exp,0
13,5urksolxqo,584,html-button-response,3180.2800000004936,5d10fe33fbbf3d001a56d936,labelPictures,LF,17_18_7_13,tob,130375,3,high,dep,blue,exp,0
13,53gv7n4gtu,584,html-button-response,1743.8000000002794,601fd3cd92f028532a257baf,labelPictures,LF,51_52_13_12,wug,130375,3,high,dep,blue,exp,0
13,0yjn7eg9zc,574,html-button-response,2639.309999998659,5f06ee44c10cab2655ea3822,labelPictures,FL,51_52_13_12,wug,130375,3,high,dep,blue,exp,0
13,e72zvev590,540,html-button-response,1989.2049999907613,5e6617541d7e1a3885c45e85,labelPictures,FL,51_52_13_12,wug,130375,3,high,dep,blue,exp,0
13,9y1b9uh65r,566,html-button-response,580.8600000018487,5daca079bf590700167f704d,labelPictures,LF,52_13_12_36,wug,130375,3,high,dep,blue,exp,0
13,zt96waez4c,538,html-button-response,1081.9049999990966,5daca66b71a51b00113172ce,labelPictures,LF,52_13_12_36,wug,130375,3,high,dep,blue,exp,0
13,26fmzvup9c,592,html-button-response,1684.5999998040497,5e94262948e806768dfa43ed,labelPictures,FL,52_13_12_36,wug,130375,3,high,dep,blue,exp,0
13,e72zvev590,572,html-button-response,1102.2649999940768,5e6617541d7e1a3885c45e85,labelPictures,FL,52_13_12_36,wug,130375,3,high,dep,blue,exp,0
13,dn0e1jm7ff,552,html-button-response,1758.625000002212,5e0cf83bc12a3649f4c9ee92,labelPictures,LF,51_52_13_12,wug,130375,3,high,dep,blue,exp,0
13,cpd84kvzmq,508,html-button-response,1543.08500001207,5ed63a6d50ece703aa7bffb9,labelPictures,FL,51_52_13_12,wug,130375,3,high,dep,blue,exp,0
13,e72zvev590,526,html-button-response,1648.9999999757856,5e6617541d7e1a3885c45e85,labelPictures,FL,17_18_7_13,tob,130375,3,high,dep,blue,exp,0
13,dn0e1jm7ff,578,html-button-response,2655.494999999064,5e0cf83bc12a3649f4c9ee92,labelPictures,LF,52_13_12_36,wug,130375,3,high,dep,blue,exp,0
13,0tf06g8uzp,542,html-button-response,1807.6100000001024,5b98223fbdb1df0001f1e684,labelPictures,LF,17_18_7_13,tob,130375,3,high,dep,blue,exp,0
13,v9kdh4rpsp,574,html-button-response,3431.9050000049174,5ed14691e983f5067842fd20,labelPictures,LF,17_18_7_13,tob,130375,3,high,dep,blue,exp,0
13,e72zvev590,560,html-button-response,1533.2049999851733,5e6617541d7e1a3885c45e85,labelPictures,FL,52_13_12_36,wug,130375,3,high,dep,blue,exp,0
13,cpd84kvzmq,534,html-button-response,1804.9549998249859,5ed63a6d50ece703aa7bffb9,labelPictures,FL,52_13_12_36,wug,130375,3,high,dep,blue,exp,0
13,v9kdh4rpsp,576,html-button-response,804.9950000131503,5ed14691e983f5067842fd20,labelPictures,LF,17_18_7_13,tob,130375,3,high,dep,blue,exp,0
13,371addqx7x,584,html-button-response,1967.0599999953993,5d8cd4be7bd5180017d887a3,labelPictures,FL,51_52_13_12,wug,130375,3,high,dep,blue,exp,0
13,b00qxzsc7o,564,html-button-response,3357.240000001155,5ffc250201d8312c325a16a5,labelPictures,FL,52_13_12_36,wug,130375,3,high,dep,blue,exp,0
13,zt96waez4c,548,html-button-response,1188.204999998561,5daca66b71a51b00113172ce,labelPictures,LF,17_18_7_13,tob,130375,3,high,dep,blue,exp,0
13,zq33udleq5,536,html-button-response,1277.2249999998603,5ec527351fc19046fdd6cd59,labelPictures,FL,17_18_7_13,tob,130375,3,high,dep,blue,exp,0
13,cpd84kvzmq,544,html-button-response,1747.2699999343604,5ed63a6d50ece703aa7bffb9,labelPictures,FL,52_13_12_36,wug,130375,3,high,dep,blue,exp,0
13,kyb3lzn0xx,504,html-button-response,1280.6250001303852,5ee9cbbbdcf662000932fb78,labelPictures,LF,52_13_12_36,wug,130375,3,high,dep,blue,exp,0
13,zq33udleq5,600,html-button-response,1209.7050000003073,5ec527351fc19046fdd6cd59,labelPictures,FL,52_13_12_36,wug,130375,3,high,dep,blue,exp,0
13,6j0z0b0c72,568,html-button-response,940.4349999967963,5ea44104a980d23d4f21f7ad,labelPictures,LF,52_13_12_36,wug,130375,3,high,dep,blue,exp,0
13,5qj7var04h,582,html-button-response,1609.1349999987287,5f4f835cea1e870397a4d295,labelPictures,LF,17_18_7_13,tob,130375,3,high,dep,blue,exp,0
13,dn0e1jm7ff,546,html-button-response,1755.0999999948544,5e0cf83bc12a3649f4c9ee92,labelPictures,LF,17_18_7_13,tob,130375,3,high,dep,blue,exp,0
13,38cgqt2jvy,582,html-button-response,887.3599999351427,5f83138efa73fa44e23c5237,labelPictures,FL,52_13_12_36,wug,130375,3,high,dep,blue,exp,0
13,cpd84kvzmq,502,html-button-response,2889.5699998829514,5ed63a6d50ece703aa7bffb9,labelPictures,FL,51_52_13_12,wug,130375,3,high,dep,blue,exp,0
13,z4xhznw88z,526,html-button-response,1615.8450000003213,5fae68d5b74c182cacbe5d6a,labelPictures,LF,17_18_7_13,tob,130375,3,high,dep,blue,exp,0
13,vzebe40w15,520,html-button-response,1622.5550000090152,5fce9a625474c41129c10fb1,labelPictures,LF,17_18_7_13,tob,130375,3,high,dep,blue,exp,0
13,vzebe40w15,568,html-button-response,1330.5099999997765,5fce9a625474c41129c10fb1,labelPictures,LF,51_52_13_12,wug,130375,3,high,dep,blue,exp,0
13,qnx5xathwg,598,html-button-response,2596.7250000103377,5cc7f4b3854fb30001d0c13a,labelPictures,LF,17_18_7_13,tob,130375,3,high,dep,blue,exp,0
13,dn0e1jm7ff,574,html-button-response,1589.5299999974668,5e0cf83bc12a3649f4c9ee92,labelPictures,LF,51_52_13_12,wug,130375,3,high,dep,blue,exp,0
13,sxbrz00bs5,552,html-button-response,2367,5ee7335388010f4c1b6bbdc2,labelPictures,LF,17_18_7_13,tob,130375,3,high,dep,blue,exp,0
13,53gv7n4gtu,536,html-button-response,1309.63499999966,601fd3cd92f028532a257baf,labelPictures,LF,51_52_13_12,wug,130375,3,high,dep,blue,exp,0
13,kyb3lzn0xx,542,html-button-response,77.93499995023012,5ee9cbbbdcf662000932fb78,labelPictures,LF,52_13_12_36,wug,130375,3,high,dep,blue,exp,0
13,38cgqt2jvy,584,html-button-response,1077.8050000080839,5f83138efa73fa44e23c5237,labelPictures,FL,52_13_12_36,wug,130375,3,high,dep,blue,exp,0
13,0yjn7eg9zc,520,html-button-response,2048.20999999356,5f06ee44c10cab2655ea3822,labelPictures,FL,17_18_7_13,tob,130375,3,high,dep,blue,exp,0
13,zq33udleq5,552,html-button-response,2700.4000000001397,5ec527351fc19046fdd6cd59,labelPictures,FL,51_52_13_12,wug,130375,3,high,dep,blue,exp,0
13,53gv7n4gtu,560,html-button-response,1033.199999999837,601fd3cd92f028532a257baf,labelPictures,LF,52_13_12_36,wug,130375,3,high,dep,blue,exp,0
13,e4msx463h0,504,html-button-response,1908.869999984745,5f1f04c1604e3508877cf62a,labelPictures,FL,52_13_12_36,wug,130375,3,high,dep,blue,exp,0
13,9y1b9uh65r,568,html-button-response,1286.840000000666,5daca079bf590700167f704d,labelPictures,LF,52_13_12_36,wug,130375,3,high,dep,blue,exp,0
13,jfuskuq35s,496,html-button-response,1481,5f50e3d60305bb088998b766,labelPictures,LF,52_13_12_36,wug,130375,3,high,dep,blue,exp,0
14,5urksolxqo,494,html-button-response,1523.2400000095367,5d10fe33fbbf3d001a56d936,labelPictures,LF,14_10_6_12,bim,140400,4,high,bim,lightblue,control,1
14,v9kdh4rpsp,554,html-button-response,2552.525000006426,5ed14691e983f5067842fd20,labelPictures,LF,41_14_54_50,tob,140400,4,low,bim,lightblue,exp,0
14,kyb3lzn0xx,596,html-button-response,237.14499990455806,5ee9cbbbdcf662000932fb78,labelPictures,LF,41_14_54_50,tob,140400,4,low,bim,lightblue,exp,0
14,0yjn7eg9zc,560,html-button-response,1782.2250000026543,5f06ee44c10cab2655ea3822,labelPictures,FL,41_14_54_50,tob,140400,4,low,bim,lightblue,exp,0
14,x8lrz32hbv,530,html-button-response,2165.8649999999907,5e7b899a6b890e0659e5e82e,labelPictures,FL,41_14_54_50,tob,140400,4,low,bim,lightblue,exp,0
14,dn0e1jm7ff,528,html-button-response,1179.8799999960465,5e0cf83bc12a3649f4c9ee92,labelPictures,LF,14_10_6_12,bim,140400,4,high,bim,lightblue,control,1
14,s52728tqhv,536,html-button-response,1554,6014777b8a88c449408352c5,labelPictures,LF,14_10_6_12,bim,140400,4,high,bim,lightblue,control,1
14,581oqcuhue,568,html-button-response,1769.29000000027,6009c2eda21be3026447d80e,labelPictures,LF,14_10_6_12,bim,140400,4,high,bim,lightblue,control,1
14,cpd84kvzmq,528,html-button-response,1406.7550001200289,5ed63a6d50ece703aa7bffb9,labelPictures,FL,14_10_6_12,bim,140400,4,high,bim,lightblue,control,1
14,55ovzw4068,494,html-button-response,2279.2849999968894,5f830f1644cc14447b03305c,labelPictures,FL,14_10_6_12,bim,140400,4,high,bim,lightblue,control,1
14,r4145wj5y7,580,html-button-response,2668.0550000001676,5f78b0e3b43f410c88d3af45,labelPictures,LF,14_10_6_12,bim,140400,4,high,bim,lightblue,control,1
14,fkw1vwzc6v,498,html-button-response,1697.6349998731166,5f50d630390521264e606772,labelPictures,FL,14_10_6_12,bim,140400,4,high,bim,lightblue,control,1
14,3b8h3oor4p,600,html-button-response,1486.3750000076834,5f61bbe3c18cc915aac68b32,labelPictures,FL,14_10_6_12,bim,140400,4,high,bim,lightblue,control,1
14,5qj7var04h,518,html-button-response,3338.1750000008033,5f4f835cea1e870397a4d295,labelPictures,LF,41_14_54_50,tob,140400,4,low,bim,lightblue,exp,0
14,26fmzvup9c,556,html-button-response,1347.3600000143051,5e94262948e806768dfa43ed,labelPictures,FL,14_10_6_12,bim,140400,4,high,bim,lightblue,control,1
14,q3zadoj47e,564,html-button-response,1054.114999998943,5e47ad846c3d4425c60ccbe5,labelPictures,FL,14_10_6_12,bim,140400,4,high,bim,lightblue,control,1
14,kyb3lzn0xx,544,html-button-response,165.0000000372529,5ee9cbbbdcf662000932fb78,labelPictures,LF,14_10_6_12,bim,140400,4,high,bim,lightblue,control,1
14,vkybhfxevw,516,html-button-response,2338.8799999993644,5f9d4170f629422451ac7fd8,labelPictures,LF,14_10_6_12,bim,140400,4,high,bim,lightblue,control,1
14,f9gvt2ubve,528,html-button-response,1436,5f529cd9e0a90c58773ec3fe,labelPictures,LF,14_10_6_12,bim,140400,4,high,bim,lightblue,control,1
14,nsqbzarmrc,490,html-button-response,1461.0900000007823,601e9d81606b8d337ab338e4,labelPictures,FL,14_10_6_12,bim,140400,4,high,bim,lightblue,control,1
14,vzebe40w15,522,html-button-response,988.5050000157207,5fce9a625474c41129c10fb1,labelPictures,LF,41_14_54_50,tob,140400,4,low,bim,lightblue,exp,0
14,d1snyw7jw6,546,html-button-response,1364.2600000021048,5fc13b486833fb13fef1720b,labelPictures,LF,14_54_29_21,dep,140400,4,low,bim,lightblue,exp,0
14,v9kdh4rpsp,594,html-button-response,1676.7300000065006,5ed14691e983f5067842fd20,labelPictures,LF,14_10_6_12,bim,140400,4,high,bim,lightblue,control,1
14,vzebe40w15,572,html-button-response,1504.4550000166055,5fce9a625474c41129c10fb1,labelPictures,LF,14_53_10_37,wug,140400,4,high,bim,lightblue,exp,0
14,b576vfvfdd,556,html-button-response,2869,5ea85cf4ad1f760a537eadfe,labelPictures,FL,14_10_6_12,bim,140400,4,high,bim,lightblue,control,1
14,32gxlbaw1s,548,html-button-response,1274.860000004992,5ea2381ad0a4b71481c298e7,labelPictures,LF,14_10_6_12,bim,140400,4,high,bim,lightblue,control,1
14,s0xp76sxy4,496,html-button-response,1385.7699998188764,5f68a907efe6b000080540be,labelPictures,LF,14_10_6_12,bim,140400,4,high,bim,lightblue,control,1
14,zt96waez4c,546,html-button-response,1112.5650000012247,5daca66b71a51b00113172ce,labelPictures,LF,14_54_29_21,dep,140400,4,low,bim,lightblue,exp,0
14,b00qxzsc7o,542,html-button-response,1010.0950000014855,5ffc250201d8312c325a16a5,labelPictures,FL,14_10_6_12,bim,140400,4,high,bim,lightblue,control,1
14,jfuskuq35s,524,html-button-response,1918,5f50e3d60305bb088998b766,labelPictures,LF,41_14_54_50,tob,140400,4,low,bim,lightblue,exp,0
14,zq33udleq5,588,html-button-response,967.7499999997672,5ec527351fc19046fdd6cd59,labelPictures,FL,14_10_6_12,bim,140400,4,high,bim,lightblue,control,1
14,oqwgn1zhn1,576,html-button-response,1100,5eb5cb8ddef42c4ad1456dd9,labelPictures,FL,14_10_6_12,bim,140400,4,high,bim,lightblue,control,1
14,sxbrz00bs5,524,html-button-response,2005,5ee7335388010f4c1b6bbdc2,labelPictures,LF,41_14_54_50,tob,140400,4,low,bim,lightblue,exp,0
14,823tgxfuz7,500,html-button-response,2201.404999999795,5f632ea32e85353d93872c67,labelPictures,LF,14_10_6_12,bim,140400,4,high,bim,lightblue,control,1
14,98ysefwhzk,508,html-button-response,1787.8299999865703,5f482f05cd5e5d2d1d57c1ff,labelPictures,LF,14_53_10_37,wug,140400,4,high,bim,lightblue,exp,0
14,9y1b9uh65r,576,html-button-response,1046.2750000006054,5daca079bf590700167f704d,labelPictures,LF,41_14_54_50,tob,140400,4,low,bim,lightblue,exp,0
14,rhglzajksw,588,html-button-response,1280.02999999444,5ea98f445ef6ee093f4f05ec,labelPictures,FL,14_10_6_12,bim,140400,4,high,bim,lightblue,control,1
14,e72zvev590,492,html-button-response,1109.8150000325404,5e6617541d7e1a3885c45e85,labelPictures,FL,14_10_6_12,bim,140400,4,high,bim,lightblue,control,1
14,jxvpkh0u3z,526,html-button-response,1461.3900000113063,5fd74512393436000a1a7323,labelPictures,FL,14_10_6_12,bim,140400,4,high,bim,lightblue,control,1
14,gqq2p40hu9,498,html-button-response,1900.799999999348,5d41aa9ec61bc300012c73f6,labelPictures,LF,14_10_6_12,bim,140400,4,high,bim,lightblue,control,1
14,6j0z0b0c72,544,html-button-response,1789.4300000043586,5ea44104a980d23d4f21f7ad,labelPictures,LF,14_10_6_12,bim,140400,4,high,bim,lightblue,control,1
14,qnx5xathwg,572,html-button-response,852.8950000181794,5cc7f4b3854fb30001d0c13a,labelPictures,LF,14_54_29_21,dep,140400,4,low,bim,lightblue,exp,0
14,e72zvev590,594,html-button-response,1890.3799999970943,5e6617541d7e1a3885c45e85,labelPictures,FL,41_14_54_50,tob,140400,4,low,bim,lightblue,exp,0
14,ssktzegauz,514,html-button-response,1730.4199999198318,5edba672293f3b028b70eb25,labelPictures,LF,14_10_6_12,bim,140400,4,high,bim,lightblue,control,1
14,5qj7var04h,560,html-button-response,2013.0549999994691,5f4f835cea1e870397a4d295,labelPictures,LF,14_10_6_12,bim,140400,4,high,bim,lightblue,control,1
14,xtbpfv8d5p,512,html-button-response,1379.7900000060908,5fbade0c4594d6b7c7d96ca9,labelPictures,FL,14_10_6_12,bim,140400,4,high,bim,lightblue,control,1
14,mus0v446tm,498,html-button-response,1690.0450000029523,5f8dda4538ed0614d9ac476b,labelPictures,LF,14_54_29_21,dep,140400,4,low,bim,lightblue,exp,0
14,0yjn7eg9zc,540,html-button-response,857.5050000072224,5f06ee44c10cab2655ea3822,labelPictures,FL,14_10_6_12,bim,140400,4,high,bim,lightblue,control,1
14,d1snyw7jw6,562,html-button-response,701.8650000100024,5fc13b486833fb13fef1720b,labelPictures,LF,14_10_6_12,bim,140400,4,high,bim,lightblue,control,1
14,9x75jv8vpf,506,html-button-response,2871.430000002845,5f34cb60fa6cf63ecf31902d,labelPictures,FL,41_14_54_50,tob,140400,4,low,bim,lightblue,exp,0
14,zt96waez4c,506,html-button-response,1116.3500000002678,5daca66b71a51b00113172ce,labelPictures,LF,41_14_54_50,tob,140400,4,low,bim,lightblue,exp,0
14,yc8mkz3uaa,512,html-button-response,1491.8500000494532,5eaeb8b513f83a57d35db285,labelPictures,LF,14_10_6_12,bim,140400,4,high,bim,lightblue,control,1
14,jfuskuq35s,556,html-button-response,1982,5f50e3d60305bb088998b766,labelPictures,LF,14_10_6_12,bim,140400,4,high,bim,lightblue,control,1
14,4xwhpmkg0h,564,html-button-response,1384.6500000000233,5ef12a14ab53a21a9012b389,labelPictures,FL,14_10_6_12,bim,140400,4,high,bim,lightblue,control,1
14,53gv7n4gtu,522,html-button-response,1071.5549999985378,601fd3cd92f028532a257baf,labelPictures,LF,41_14_54_50,tob,140400,4,low,bim,lightblue,exp,0
14,53gv7n4gtu,548,html-button-response,3190.884999999893,601fd3cd92f028532a257baf,labelPictures,LF,41_14_54_50,tob,140400,4,low,bim,lightblue,exp,0
14,lpb8r8jcs5,516,html-button-response,2944.069999997737,5dc1e79c880a2915309a8ee3,labelPictures,LF,14_10_6_12,bim,140400,4,high,bim,lightblue,control,1
14,e4msx463h0,490,html-button-response,1357.979999971576,5f1f04c1604e3508877cf62a,labelPictures,FL,14_10_6_12,bim,140400,4,high,bim,lightblue,control,1
14,gcrz58pdx0,500,html-button-response,1325.9149999939837,5f9b106e21189e2d3b853846,labelPictures,LF,14_10_6_12,bim,140400,4,high,bim,lightblue,control,1
14,0tf06g8uzp,566,html-button-response,1320.125,5b98223fbdb1df0001f1e684,labelPictures,LF,14_10_6_12,bim,140400,4,high,bim,lightblue,control,1
14,z4xhznw88z,490,html-button-response,1868.1300000025658,5fae68d5b74c182cacbe5d6a,labelPictures,LF,14_10_6_12,bim,140400,4,high,bim,lightblue,control,1
14,s80pnsgly8,500,html-button-response,1643.999999971129,5ed09b6985143f000c08b6b8,labelPictures,FL,14_10_6_12,bim,140400,4,high,bim,lightblue,control,1
14,t5ex7zbfo2,544,html-button-response,1293.054999998305,5fd7ee02c0a4610ea7d258b4,labelPictures,LF,14_54_29_21,dep,140400,4,low,bim,lightblue,exp,0
14,kyb3lzn0xx,526,html-button-response,309.24500012770295,5ee9cbbbdcf662000932fb78,labelPictures,LF,41_14_54_50,tob,140400,4,low,bim,lightblue,exp,0
14,98ysefwhzk,600,html-button-response,922.3650000058115,5f482f05cd5e5d2d1d57c1ff,labelPictures,LF,14_10_6_12,bim,140400,4,high,bim,lightblue,control,1
14,2n2kv71sum,558,html-button-response,1676.8149999843445,5e67d9ed33e6a60542f4dfd7,labelPictures,LF,14_10_6_12,bim,140400,4,high,bim,lightblue,control,1
14,vzebe40w15,548,html-button-response,862.4549999949522,5fce9a625474c41129c10fb1,labelPictures,LF,41_14_54_50,tob,140400,4,low,bim,lightblue,exp,0
14,371addqx7x,490,html-button-response,1407.4350000009872,5d8cd4be7bd5180017d887a3,labelPictures,FL,14_10_6_12,bim,140400,4,high,bim,lightblue,control,1
14,s80pnsgly8,510,html-button-response,1319.9999999487773,5ed09b6985143f000c08b6b8,labelPictures,FL,41_14_54_50,tob,140400,4,low,bim,lightblue,exp,0
14,d1c4anqfzp,572,html-button-response,1581,5c5d6b55b7ce2100011fa04e,labelPictures,FL,14_10_6_12,bim,140400,4,high,bim,lightblue,control,1
14,38cgqt2jvy,530,html-button-response,2565.3150000143796,5f83138efa73fa44e23c5237,labelPictures,FL,14_53_10_37,wug,140400,4,high,bim,lightblue,exp,0
15,0yjn7eg9zc,518,html-button-response,807.7849999972386,5f06ee44c10cab2655ea3822,labelPictures,FL,46_15_40_32,bim,150125,1,low,tob,purple,control,0
15,vzebe40w15,542,html-button-response,1338.3150000008754,5fce9a625474c41129c10fb1,labelPictures,LF,46_15_40_32,bim,150125,1,low,tob,purple,control,0
15,kyb3lzn0xx,580,html-button-response,101.18999984115362,5ee9cbbbdcf662000932fb78,labelPictures,LF,46_15_40_32,bim,150125,1,low,tob,purple,control,0
16,qnx5xathwg,492,html-button-response,2940.345000009984,5cc7f4b3854fb30001d0c13a,labelPictures,LF,11_9_5_16,bim,160325,3,low,dep,red,control,0
16,38cgqt2jvy,504,html-button-response,1659.4649999169633,5f83138efa73fa44e23c5237,labelPictures,FL,11_9_5_16,bim,160325,3,low,dep,red,control,0
17,q3zadoj47e,496,html-button-response,1532.5999999985797,5e47ad846c3d4425c60ccbe5,labelPictures,FL,17_18_7_13,tob,170175,1,high,tob,red,exp,1
17,mus0v446tm,572,html-button-response,1438.7750000023516,5f8dda4538ed0614d9ac476b,labelPictures,LF,17_18_7_13,tob,170175,1,high,tob,red,exp,1
17,zt96waez4c,584,html-button-response,1433.4749999997439,5daca66b71a51b00113172ce,labelPictures,LF,17_18_7_13,tob,170175,1,high,tob,red,exp,1
17,f208my9c1t,580,html-button-response,1950,5d920df12b679a00182bbc73,labelPictures,LF,17_18_7_13,tob,170175,1,high,tob,red,exp,1
17,vzebe40w15,516,html-button-response,1379.1550000023562,5fce9a625474c41129c10fb1,labelPictures,LF,17_18_7_13,tob,170175,1,high,tob,red,exp,1
17,581oqcuhue,492,html-button-response,3121.2700000000186,6009c2eda21be3026447d80e,labelPictures,LF,17_18_7_13,tob,170175,1,high,tob,red,exp,1
17,e4msx463h0,596,html-button-response,1611.6449999972247,5f1f04c1604e3508877cf62a,labelPictures,FL,17_18_7_13,tob,170175,1,high,tob,red,exp,1
17,f9gvt2ubve,500,html-button-response,2302,5f529cd9e0a90c58773ec3fe,labelPictures,LF,17_18_7_13,tob,170175,1,high,tob,red,exp,1
17,cpd84kvzmq,510,html-button-response,1477.2899998351932,5ed63a6d50ece703aa7bffb9,labelPictures,FL,17_18_7_13,tob,170175,1,high,tob,red,exp,1
17,32gxlbaw1s,504,html-button-response,1792.4800000037067,5ea2381ad0a4b71481c298e7,labelPictures,LF,17_18_7_13,tob,170175,1,high,tob,red,exp,1
17,b576vfvfdd,514,html-button-response,2936,5ea85cf4ad1f760a537eadfe,labelPictures,FL,17_18_7_13,tob,170175,1,high,tob,red,exp,1
17,e72zvev590,510,html-button-response,1013.9149999595247,5e6617541d7e1a3885c45e85,labelPictures,FL,17_18_7_13,tob,170175,1,high,tob,red,exp,1
17,32gxlbaw1s,498,html-button-response,977.3649999988265,5ea2381ad0a4b71481c298e7,labelPictures,LF,17_18_7_13,tob,170175,1,high,tob,red,exp,1
17,9y1b9uh65r,518,html-button-response,2283.994999990682,5daca079bf590700167f704d,labelPictures,LF,17_18_7_13,tob,170175,1,high,tob,red,exp,1
17,gcrz58pdx0,564,html-button-response,2116.069999989122,5f9b106e21189e2d3b853846,labelPictures,LF,17_18_7_13,tob,170175,1,high,tob,red,exp,1
17,s0xp76sxy4,532,html-button-response,2018.6000000685453,5f68a907efe6b000080540be,labelPictures,LF,17_18_7_13,tob,170175,1,high,tob,red,exp,1
17,3b8h3oor4p,538,html-button-response,2431.559999997262,5f61bbe3c18cc915aac68b32,labelPictures,FL,17_18_7_13,tob,170175,1,high,tob,red,exp,1
17,yc8mkz3uaa,582,html-button-response,1354.4350000447594,5eaeb8b513f83a57d35db285,labelPictures,LF,17_18_7_13,tob,170175,1,high,tob,red,exp,1
17,d1c4anqfzp,580,html-button-response,2135,5c5d6b55b7ce2100011fa04e,labelPictures,FL,17_18_7_13,tob,170175,1,high,tob,red,exp,1
17,vkybhfxevw,530,html-button-response,1024.2900000012014,5f9d4170f629422451ac7fd8,labelPictures,LF,17_18_7_13,tob,170175,1,high,tob,red,exp,1
17,nsqbzarmrc,504,html-button-response,1356.954999999376,601e9d81606b8d337ab338e4,labelPictures,FL,17_18_7_13,tob,170175,1,high,tob,red,exp,1
17,d1c4anqfzp,502,html-button-response,1508,5c5d6b55b7ce2100011fa04e,labelPictures,FL,17_18_7_13,tob,170175,1,high,tob,red,exp,1
17,d1snyw7jw6,588,html-button-response,1053.4950000001118,5fc13b486833fb13fef1720b,labelPictures,LF,17_18_7_13,tob,170175,1,high,tob,red,exp,1
17,5urksolxqo,532,html-button-response,1803.3699999796227,5d10fe33fbbf3d001a56d936,labelPictures,LF,17_18_7_13,tob,170175,1,high,tob,red,exp,1
17,ssktzegauz,538,html-button-response,2921.9500003382564,5edba672293f3b028b70eb25,labelPictures,LF,17_18_7_13,tob,170175,1,high,tob,red,exp,1
17,0yjn7eg9zc,508,html-button-response,1265.4500000062399,5f06ee44c10cab2655ea3822,labelPictures,FL,17_18_7_13,tob,170175,1,high,tob,red,exp,1
17,zq33udleq5,560,html-button-response,2160.965000000084,5ec527351fc19046fdd6cd59,labelPictures,FL,17_18_7_13,tob,170175,1,high,tob,red,exp,1
17,d1snyw7jw6,540,html-button-response,2350.635000009788,5fc13b486833fb13fef1720b,labelPictures,LF,17_18_7_13,tob,170175,1,high,tob,red,exp,1
17,f208my9c1t,566,html-button-response,2639,5d920df12b679a00182bbc73,labelPictures,LF,17_18_7_13,tob,170175,1,high,tob,red,exp,1
17,98ysefwhzk,566,html-button-response,2149.2399999988265,5f482f05cd5e5d2d1d57c1ff,labelPictures,LF,17_18_7_13,tob,170175,1,high,tob,red,exp,1
17,yc8mkz3uaa,550,html-button-response,1595.1149999746121,5eaeb8b513f83a57d35db285,labelPictures,LF,17_18_7_13,tob,170175,1,high,tob,red,exp,1
17,t5ex7zbfo2,554,html-button-response,1828.3950000004843,5fd7ee02c0a4610ea7d258b4,labelPictures,LF,17_18_7_13,tob,170175,1,high,tob,red,exp,1
17,yhakp9pfe9,502,html-button-response,2085.5400000000373,5f57a42b46df8927414990fc,labelPictures,LF,17_18_7_13,tob,170175,1,high,tob,red,exp,1
17,f9gvt2ubve,502,html-button-response,2249,5f529cd9e0a90c58773ec3fe,labelPictures,LF,17_18_7_13,tob,170175,1,high,tob,red,exp,1
17,38cgqt2jvy,496,html-button-response,1838.8999999733642,5f83138efa73fa44e23c5237,labelPictures,FL,17_18_7_13,tob,170175,1,high,tob,red,exp,1
17,daqg5rc8xw,590,html-button-response,1713.5350001044571,5eadc934201643479a185e59,labelPictures,LF,17_18_7_13,tob,170175,1,high,tob,red,exp,1
17,s80pnsgly8,544,html-button-response,2100.0000000349246,5ed09b6985143f000c08b6b8,labelPictures,FL,17_18_7_13,tob,170175,1,high,tob,red,exp,1
17,x8lrz32hbv,490,html-button-response,2331.4950000003446,5e7b899a6b890e0659e5e82e,labelPictures,FL,17_18_7_13,tob,170175,1,high,tob,red,exp,1
17,xtbpfv8d5p,596,html-button-response,966.7250000056811,5fbade0c4594d6b7c7d96ca9,labelPictures,FL,17_18_7_13,tob,170175,1,high,tob,red,exp,1
17,yhakp9pfe9,570,html-button-response,1965.9600000013597,5f57a42b46df8927414990fc,labelPictures,LF,17_18_7_13,tob,170175,1,high,tob,red,exp,1
17,823tgxfuz7,552,html-button-response,2435.795000001206,5f632ea32e85353d93872c67,labelPictures,LF,17_18_7_13,tob,170175,1,high,tob,red,exp,1
17,6j0z0b0c72,512,html-button-response,1342.3300000140443,5ea44104a980d23d4f21f7ad,labelPictures,LF,17_18_7_13,tob,170175,1,high,tob,red,exp,1
17,6j0z0b0c72,570,html-button-response,3192.5150000024587,5ea44104a980d23d4f21f7ad,labelPictures,LF,17_18_7_13,tob,170175,1,high,tob,red,exp,1
17,fkw1vwzc6v,574,html-button-response,2209.18000000529,5f50d630390521264e606772,labelPictures,FL,17_18_7_13,tob,170175,1,high,tob,red,exp,1
17,2n2kv71sum,496,html-button-response,1451.1300000012852,5e67d9ed33e6a60542f4dfd7,labelPictures,LF,17_18_7_13,tob,170175,1,high,tob,red,exp,1
17,b576vfvfdd,554,html-button-response,1416,5ea85cf4ad1f760a537eadfe,labelPictures,FL,17_18_7_13,tob,170175,1,high,tob,red,exp,1
17,s52728tqhv,598,html-button-response,2882,6014777b8a88c449408352c5,labelPictures,LF,17_18_7_13,tob,170175,1,high,tob,red,exp,1
17,daqg5rc8xw,504,html-button-response,2642.7250001579523,5eadc934201643479a185e59,labelPictures,LF,17_18_7_13,tob,170175,1,high,tob,red,exp,1
17,s0xp76sxy4,516,html-button-response,1508.705000160262,5f68a907efe6b000080540be,labelPictures,LF,17_18_7_13,tob,170175,1,high,tob,red,exp,1
17,jxvpkh0u3z,598,html-button-response,989.2949999775738,5fd74512393436000a1a7323,labelPictures,FL,17_18_7_13,tob,170175,1,high,tob,red,exp,1
17,0tf06g8uzp,536,html-button-response,2161.214999999851,5b98223fbdb1df0001f1e684,labelPictures,LF,17_18_7_13,tob,170175,1,high,tob,red,exp,1
17,nsqbzarmrc,538,html-button-response,1453.4099999982864,601e9d81606b8d337ab338e4,labelPictures,FL,17_18_7_13,tob,170175,1,high,tob,red,exp,1
17,e4msx463h0,492,html-button-response,2604.0650000213645,5f1f04c1604e3508877cf62a,labelPictures,FL,17_18_7_13,tob,170175,1,high,tob,red,exp,1
17,gqq2p40hu9,528,html-button-response,1880.789999999106,5d41aa9ec61bc300012c73f6,labelPictures,LF,17_18_7_13,tob,170175,1,high,tob,red,exp,1
17,55ovzw4068,534,html-button-response,666.1949999979697,5f830f1644cc14447b03305c,labelPictures,FL,17_18_7_13,tob,170175,1,high,tob,red,exp,1
17,oqwgn1zhn1,594,html-button-response,2006,5eb5cb8ddef42c4ad1456dd9,labelPictures,FL,17_18_7_13,tob,170175,1,high,tob,red,exp,1
17,lpb8r8jcs5,570,html-button-response,2965.5900000070687,5dc1e79c880a2915309a8ee3,labelPictures,LF,17_18_7_13,tob,170175,1,high,tob,red,exp,1
17,371addqx7x,554,html-button-response,2274.4600000442006,5d8cd4be7bd5180017d887a3,labelPictures,FL,17_18_7_13,tob,170175,1,high,tob,red,exp,1
17,q3zadoj47e,586,html-button-response,1819.5950000009034,5e47ad846c3d4425c60ccbe5,labelPictures,FL,17_18_7_13,tob,170175,1,high,tob,red,exp,1
17,581oqcuhue,596,html-button-response,2143.945000000298,6009c2eda21be3026447d80e,labelPictures,LF,17_18_7_13,tob,170175,1,high,tob,red,exp,1
17,26fmzvup9c,584,html-button-response,2165.8799997530878,5e94262948e806768dfa43ed,labelPictures,FL,17_18_7_13,tob,170175,1,high,tob,red,exp,1
17,2n2kv71sum,580,html-button-response,2959.8499999847263,5e67d9ed33e6a60542f4dfd7,labelPictures,LF,17_18_7_13,tob,170175,1,high,tob,red,exp,1
17,s52728tqhv,510,html-button-response,2442,6014777b8a88c449408352c5,labelPictures,LF,17_18_7_13,tob,170175,1,high,tob,red,exp,1
17,55ovzw4068,500,html-button-response,1681.510000009439,5f830f1644cc14447b03305c,labelPictures,FL,17_18_7_13,tob,170175,1,high,tob,red,exp,1
17,98ysefwhzk,598,html-button-response,1385.4100000462495,5f482f05cd5e5d2d1d57c1ff,labelPictures,LF,17_18_7_13,tob,170175,1,high,tob,red,exp,1
17,823tgxfuz7,600,html-button-response,2443.9499999971595,5f632ea32e85353d93872c67,labelPictures,LF,17_18_7_13,tob,170175,1,high,tob,red,exp,1
17,r4145wj5y7,490,html-button-response,2242.57499999844,5f78b0e3b43f410c88d3af45,labelPictures,LF,17_18_7_13,tob,170175,1,high,tob,red,exp,1
17,oqwgn1zhn1,530,html-button-response,1363,5eb5cb8ddef42c4ad1456dd9,labelPictures,FL,17_18_7_13,tob,170175,1,high,tob,red,exp,1
17,r4145wj5y7,528,html-button-response,1857.3749999995343,5f78b0e3b43f410c88d3af45,labelPictures,LF,17_18_7_13,tob,170175,1,high,tob,red,exp,1
17,cpd84kvzmq,518,html-button-response,1530.4650000762194,5ed63a6d50ece703aa7bffb9,labelPictures,FL,17_18_7_13,tob,170175,1,high,tob,red,exp,1
17,t5ex7zbfo2,548,html-button-response,1094.404999999795,5fd7ee02c0a4610ea7d258b4,labelPictures,LF,17_18_7_13,tob,170175,1,high,tob,red,exp,1
17,5qj7var04h,496,html-button-response,3081.1349999967497,5f4f835cea1e870397a4d295,labelPictures,LF,17_18_7_13,tob,170175,1,high,tob,red,exp,1
17,fkw1vwzc6v,520,html-button-response,2423.359999898821,5f50d630390521264e606772,labelPictures,FL,17_18_7_13,tob,170175,1,high,tob,red,exp,1
17,mus0v446tm,566,html-button-response,1608.8999999993248,5f8dda4538ed0614d9ac476b,labelPictures,LF,17_18_7_13,tob,170175,1,high,tob,red,exp,1
17,9y1b9uh65r,504,html-button-response,1035.0800000014715,5daca079bf590700167f704d,labelPictures,LF,17_18_7_13,tob,170175,1,high,tob,red,exp,1
17,rhglzajksw,550,html-button-response,2032.565000001341,5ea98f445ef6ee093f4f05ec,labelPictures,FL,17_18_7_13,tob,170175,1,high,tob,red,exp,1
17,lpb8r8jcs5,518,html-button-response,2513.1249999976717,5dc1e79c880a2915309a8ee3,labelPictures,LF,17_18_7_13,tob,170175,1,high,tob,red,exp,1
17,jxvpkh0u3z,562,html-button-response,1358.0499999807216,5fd74512393436000a1a7323,labelPictures,FL,17_18_7_13,tob,170175,1,high,tob,red,exp,1
17,b00qxzsc7o,500,html-button-response,877.0699999986682,5ffc250201d8312c325a16a5,labelPictures,FL,17_18_7_13,tob,170175,1,high,tob,red,exp,1
17,vkybhfxevw,534,html-button-response,1029.5100000003004,5f9d4170f629422451ac7fd8,labelPictures,LF,17_18_7_13,tob,170175,1,high,tob,red,exp,1
17,ssktzegauz,586,html-button-response,1565.0149998255074,5edba672293f3b028b70eb25,labelPictures,LF,17_18_7_13,tob,170175,1,high,tob,red,exp,1
17,b00qxzsc7o,588,html-button-response,969.4699999999721,5ffc250201d8312c325a16a5,labelPictures,FL,17_18_7_13,tob,170175,1,high,tob,red,exp,1
17,gqq2p40hu9,544,html-button-response,3343.8300000017043,5d41aa9ec61bc300012c73f6,labelPictures,LF,17_18_7_13,tob,170175,1,high,tob,red,exp,1
17,gcrz58pdx0,534,html-button-response,1174.2550000199117,5f9b106e21189e2d3b853846,labelPictures,LF,17_18_7_13,tob,170175,1,high,tob,red,exp,1
17,3b8h3oor4p,504,html-button-response,1912.2299999871757,5f61bbe3c18cc915aac68b32,labelPictures,FL,17_18_7_13,tob,170175,1,high,tob,red,exp,1
18,rhglzajksw,560,html-button-response,2380.349999992177,5ea98f445ef6ee093f4f05ec,labelPictures,FL,17_18_7_13,tob,180275,2,high,wug,purple,exp,0
18,kyb3lzn0xx,498,html-button-response,172.83499985933304,5ee9cbbbdcf662000932fb78,labelPictures,LF,17_18_7_13,tob,180275,2,high,wug,purple,exp,0
18,26fmzvup9c,600,html-button-response,1604.3899999931455,5e94262948e806768dfa43ed,labelPictures,FL,17_18_7_13,tob,180275,2,high,wug,purple,exp,0
18,z4xhznw88z,530,html-button-response,693.8750000008149,5fae68d5b74c182cacbe5d6a,labelPictures,LF,17_18_7_13,tob,180275,2,high,wug,purple,exp,0
18,4xwhpmkg0h,500,html-button-response,1522.850000000326,5ef12a14ab53a21a9012b389,labelPictures,FL,17_18_7_13,tob,180275,2,high,wug,purple,exp,0
18,kyb3lzn0xx,548,html-button-response,68.2449999731034,5ee9cbbbdcf662000932fb78,labelPictures,LF,17_18_7_13,tob,180275,2,high,wug,purple,exp,0
18,jfuskuq35s,548,html-button-response,2282,5f50e3d60305bb088998b766,labelPictures,LF,17_18_7_13,tob,180275,2,high,wug,purple,exp,0
18,dn0e1jm7ff,536,html-button-response,3087.870000003022,5e0cf83bc12a3649f4c9ee92,labelPictures,LF,17_18_7_13,tob,180275,2,high,wug,purple,exp,0
18,38cgqt2jvy,600,html-button-response,1594.160000095144,5f83138efa73fa44e23c5237,labelPictures,FL,17_18_7_13,tob,180275,2,high,wug,purple,exp,0
19,sxbrz00bs5,522,html-button-response,1530,5ee7335388010f4c1b6bbdc2,labelPictures,LF,36_56_52_19,tob,190375,3,high,dep,blue,exp,0
19,v9kdh4rpsp,580,html-button-response,1911.000000021886,5ed14691e983f5067842fd20,labelPictures,LF,36_56_52_19,tob,190375,3,high,dep,blue,exp,0
19,zq33udleq5,490,html-button-response,1647.5,5ec527351fc19046fdd6cd59,labelPictures,FL,36_56_52_19,tob,190375,3,high,dep,blue,exp,0
19,zt96waez4c,594,html-button-response,1232.324999999022,5daca66b71a51b00113172ce,labelPictures,LF,36_56_52_19,tob,190375,3,high,dep,blue,exp,0
19,v9kdh4rpsp,536,html-button-response,2418.8649999559857,5ed14691e983f5067842fd20,labelPictures,LF,36_56_52_19,tob,190375,3,high,dep,blue,exp,0
19,vzebe40w15,578,html-button-response,1616.1949999805074,5fce9a625474c41129c10fb1,labelPictures,LF,36_56_52_19,tob,190375,3,high,dep,blue,exp,0
19,s80pnsgly8,578,html-button-response,1364.9999999906868,5ed09b6985143f000c08b6b8,labelPictures,FL,36_56_52_19,tob,190375,3,high,dep,blue,exp,0
19,4xwhpmkg0h,582,html-button-response,2364.8700000003446,5ef12a14ab53a21a9012b389,labelPictures,FL,36_56_52_19,tob,190375,3,high,dep,blue,exp,0
19,zt96waez4c,526,html-button-response,1564.8550000005052,5daca66b71a51b00113172ce,labelPictures,LF,36_56_52_19,tob,190375,3,high,dep,blue,exp,0
19,rhglzajksw,580,html-button-response,2191.0600000119302,5ea98f445ef6ee093f4f05ec,labelPictures,FL,36_56_52_19,tob,190375,3,high,dep,blue,exp,0
19,0tf06g8uzp,494,html-button-response,2306.984999999928,5b98223fbdb1df0001f1e684,labelPictures,LF,36_56_52_19,tob,190375,3,high,dep,blue,exp,0
19,zq33udleq5,522,html-button-response,1190.6449999996694,5ec527351fc19046fdd6cd59,labelPictures,FL,36_56_52_19,tob,190375,3,high,dep,blue,exp,0
19,b576vfvfdd,548,html-button-response,2152,5ea85cf4ad1f760a537eadfe,labelPictures,FL,36_56_52_19,tob,190375,3,high,dep,blue,exp,0
2,38cgqt2jvy,564,html-button-response,1150.9450000012293,5f83138efa73fa44e23c5237,labelPictures,FL,1_2_3_7,bim,20175,1,high,tob,red,control,0
2,kyb3lzn0xx,530,html-button-response,341.139999916777,5ee9cbbbdcf662000932fb78,labelPictures,LF,1_2_3_7,bim,20175,1,high,tob,red,control,0
2,vzebe40w15,558,html-button-response,976.0550000064541,5fce9a625474c41129c10fb1,labelPictures,LF,1_2_3_7,bim,20175,1,high,tob,red,control,0
2,qnx5xathwg,596,html-button-response,2717.0500000356697,5cc7f4b3854fb30001d0c13a,labelPictures,LF,1_2_3_7,bim,20175,1,high,tob,red,control,0
20,lpb8r8jcs5,592,html-button-response,2225.6599999964237,5dc1e79c880a2915309a8ee3,labelPictures,LF,26_22_21_20,tob,200125,1,low,tob,purple,exp,1
20,s80pnsgly8,546,html-button-response,2108.0000000074506,5ed09b6985143f000c08b6b8,labelPictures,FL,40_5_51_20,dep,200125,1,low,tob,purple,exp,0
20,jfuskuq35s,550,html-button-response,1781,5f50e3d60305bb088998b766,labelPictures,LF,26_22_21_20,tob,200125,1,low,tob,purple,exp,1
20,b00qxzsc7o,502,html-button-response,2179.4849999969592,5ffc250201d8312c325a16a5,labelPictures,FL,36_50_5_20,dep,200125,1,low,tob,purple,exp,0
20,f9gvt2ubve,550,html-button-response,1371,5f529cd9e0a90c58773ec3fe,labelPictures,LF,36_50_5_20,dep,200125,1,low,tob,purple,exp,0
20,cpd84kvzmq,568,html-button-response,1632.804999826476,5ed63a6d50ece703aa7bffb9,labelPictures,FL,36_50_5_20,dep,200125,1,low,tob,purple,exp,0
20,b00qxzsc7o,562,html-button-response,2798.405000001425,5ffc250201d8312c325a16a5,labelPictures,FL,40_5_51_20,dep,200125,1,low,tob,purple,exp,0
20,53gv7n4gtu,506,html-button-response,1214.2449999992386,601fd3cd92f028532a257baf,labelPictures,LF,40_5_51_20,dep,200125,1,low,tob,purple,exp,0
20,vzebe40w15,590,html-button-response,1767.8650000016205,5fce9a625474c41129c10fb1,labelPictures,LF,36_50_5_20,dep,200125,1,low,tob,purple,exp,0
20,qnx5xathwg,524,html-button-response,2413.0149999982677,5cc7f4b3854fb30001d0c13a,labelPictures,LF,26_22_21_20,tob,200125,1,low,tob,purple,exp,1
20,98ysefwhzk,520,html-button-response,2875.9749999735504,5f482f05cd5e5d2d1d57c1ff,labelPictures,LF,26_22_21_20,tob,200125,1,low,tob,purple,exp,1
20,6j0z0b0c72,550,html-button-response,1033.209999994142,5ea44104a980d23d4f21f7ad,labelPictures,LF,26_22_21_20,tob,200125,1,low,tob,purple,exp,1
20,z4xhznw88z,538,html-button-response,1333.009999998496,5fae68d5b74c182cacbe5d6a,labelPictures,LF,40_5_51_20,dep,200125,1,low,tob,purple,exp,0
20,f9gvt2ubve,548,html-button-response,1957,5f529cd9e0a90c58773ec3fe,labelPictures,LF,40_5_51_20,dep,200125,1,low,tob,purple,exp,0
20,lpb8r8jcs5,566,html-button-response,3461.4799999981187,5dc1e79c880a2915309a8ee3,labelPictures,LF,40_5_51_20,dep,200125,1,low,tob,purple,exp,0
20,s80pnsgly8,506,html-button-response,1306.9999999715947,5ed09b6985143f000c08b6b8,labelPictures,FL,36_50_5_20,dep,200125,1,low,tob,purple,exp,0
20,s80pnsgly8,568,html-button-response,1409.9999999743886,5ed09b6985143f000c08b6b8,labelPictures,FL,36_50_5_20,dep,200125,1,low,tob,purple,exp,0
20,yhakp9pfe9,518,html-button-response,3021.775000001071,5f57a42b46df8927414990fc,labelPictures,LF,26_22_21_20,tob,200125,1,low,tob,purple,exp,1
20,6j0z0b0c72,548,html-button-response,2438.4849999914877,5ea44104a980d23d4f21f7ad,labelPictures,LF,26_22_21_20,tob,200125,1,low,tob,purple,exp,1
20,jfuskuq35s,538,html-button-response,1731,5f50e3d60305bb088998b766,labelPictures,LF,40_5_51_20,dep,200125,1,low,tob,purple,exp,0
20,b00qxzsc7o,536,html-button-response,2231.31000000285,5ffc250201d8312c325a16a5,labelPictures,FL,36_50_5_20,dep,200125,1,low,tob,purple,exp,0
20,x8lrz32hbv,500,html-button-response,1923.8100000001723,5e7b899a6b890e0659e5e82e,labelPictures,FL,26_22_21_20,tob,200125,1,low,tob,purple,exp,1
20,38cgqt2jvy,526,html-button-response,1600.940000033006,5f83138efa73fa44e23c5237,labelPictures,FL,26_22_21_20,tob,200125,1,low,tob,purple,exp,1
20,s80pnsgly8,530,html-button-response,2603.9999999920838,5ed09b6985143f000c08b6b8,labelPictures,FL,40_5_51_20,dep,200125,1,low,tob,purple,exp,0
20,4xwhpmkg0h,532,html-button-response,2434.095000000554,5ef12a14ab53a21a9012b389,labelPictures,FL,26_22_21_20,tob,200125,1,low,tob,purple,exp,1
20,4xwhpmkg0h,598,html-button-response,2690.125,5ef12a14ab53a21a9012b389,labelPictures,FL,26_22_21_20,tob,200125,1,low,tob,purple,exp,1
20,rhglzajksw,562,html-button-response,2876.2749999877997,5ea98f445ef6ee093f4f05ec,labelPictures,FL,40_5_51_20,dep,200125,1,low,tob,purple,exp,0
20,cpd84kvzmq,578,html-button-response,2684.6099998801947,5ed63a6d50ece703aa7bffb9,labelPictures,FL,36_50_5_20,dep,200125,1,low,tob,purple,exp,0
20,x8lrz32hbv,508,html-button-response,2584.6300000002375,5e7b899a6b890e0659e5e82e,labelPictures,FL,36_50_5_20,dep,200125,1,low,tob,purple,exp,0
20,kyb3lzn0xx,600,html-button-response,181.48500006645918,5ee9cbbbdcf662000932fb78,labelPictures,LF,40_5_51_20,dep,200125,1,low,tob,purple,exp,0
20,rhglzajksw,578,html-button-response,2796.8500000133645,5ea98f445ef6ee093f4f05ec,labelPictures,FL,40_5_51_20,dep,200125,1,low,tob,purple,exp,0
20,zt96waez4c,530,html-button-response,1815.699999999255,5daca66b71a51b00113172ce,labelPictures,LF,40_5_51_20,dep,200125,1,low,tob,purple,exp,0
20,zt96waez4c,514,html-button-response,1383.91000000044,5daca66b71a51b00113172ce,labelPictures,LF,36_50_5_20,dep,200125,1,low,tob,purple,exp,0
20,e72zvev590,556,html-button-response,1053.8199999718927,5e6617541d7e1a3885c45e85,labelPictures,FL,36_50_5_20,dep,200125,1,low,tob,purple,exp,0
20,cpd84kvzmq,588,html-button-response,1693.065000232309,5ed63a6d50ece703aa7bffb9,labelPictures,FL,40_5_51_20,dep,200125,1,low,tob,purple,exp,0
21,s0xp76sxy4,552,html-button-response,1539.4150000065565,5f68a907efe6b000080540be,labelPictures,LF,5_21_29_36,wug,210325,3,low,dep,red,exp,0
21,98ysefwhzk,540,html-button-response,1619.4000000250526,5f482f05cd5e5d2d1d57c1ff,labelPictures,LF,9_21_30_51,dep,210325,3,low,dep,red,exp,1
21,55ovzw4068,496,html-button-response,1658.2999999955064,5f830f1644cc14447b03305c,labelPictures,FL,26_22_21_20,tob,210325,3,low,dep,red,exp,0
21,yc8mkz3uaa,590,html-button-response,1739.3000000156462,5eaeb8b513f83a57d35db285,labelPictures,LF,14_54_29_21,dep,210325,3,low,dep,red,exp,1
21,b00qxzsc7o,490,html-button-response,2267.899999998859,5ffc250201d8312c325a16a5,labelPictures,FL,26_22_21_20,tob,210325,3,low,dep,red,exp,0
21,e4msx463h0,582,html-button-response,1044.6499999961816,5f1f04c1604e3508877cf62a,labelPictures,FL,26_22_21_20,tob,210325,3,low,dep,red,exp,0
21,r4145wj5y7,526,html-button-response,2174.1000000002095,5f78b0e3b43f410c88d3af45,labelPictures,LF,26_22_21_20,tob,210325,3,low,dep,red,exp,0
21,9y1b9uh65r,506,html-button-response,871.1800000019139,5daca079bf590700167f704d,labelPictures,LF,26_22_21_20,tob,210325,3,low,dep,red,exp,0
21,vzebe40w15,566,html-button-response,3001.3099999923725,5fce9a625474c41129c10fb1,labelPictures,LF,26_22_21_20,tob,210325,3,low,dep,red,exp,0
21,jfuskuq35s,526,html-button-response,2217,5f50e3d60305bb088998b766,labelPictures,LF,14_54_29_21,dep,210325,3,low,dep,red,exp,1
21,5qj7var04h,568,html-button-response,1945.030000002589,5f4f835cea1e870397a4d295,labelPictures,LF,9_21_30_51,dep,210325,3,low,dep,red,exp,1
21,x8lrz32hbv,566,html-button-response,724.2700000006007,5e7b899a6b890e0659e5e82e,labelPictures,FL,9_21_30_51,dep,210325,3,low,dep,red,exp,1
21,53gv7n4gtu,594,html-button-response,1291.3050000006333,601fd3cd92f028532a257baf,labelPictures,LF,14_54_29_21,dep,210325,3,low,dep,red,exp,1
21,zq33udleq5,564,html-button-response,1359.600000000326,5ec527351fc19046fdd6cd59,labelPictures,FL,9_21_30_51,dep,210325,3,low,dep,red,exp,1
21,b576vfvfdd,598,html-button-response,1406,5ea85cf4ad1f760a537eadfe,labelPictures,FL,26_22_21_20,tob,210325,3,low,dep,red,exp,0
21,4xwhpmkg0h,524,html-button-response,2043.3149999999441,5ef12a14ab53a21a9012b389,labelPictures,FL,14_54_29_21,dep,210325,3,low,dep,red,exp,1
21,d1snyw7jw6,558,html-button-response,1124.9100000131875,5fc13b486833fb13fef1720b,labelPictures,LF,26_22_21_20,tob,210325,3,low,dep,red,exp,0
21,q3zadoj47e,518,html-button-response,1523.970000000205,5e47ad846c3d4425c60ccbe5,labelPictures,FL,26_22_21_20,tob,210325,3,low,dep,red,exp,0
21,5qj7var04h,562,html-button-response,1634.6850000009872,5f4f835cea1e870397a4d295,labelPictures,LF,9_21_30_51,dep,210325,3,low,dep,red,exp,1
21,dn0e1jm7ff,522,html-button-response,2057.2899999970105,5e0cf83bc12a3649f4c9ee92,labelPictures,LF,9_21_30_51,dep,210325,3,low,dep,red,exp,1
21,t5ex7zbfo2,528,html-button-response,784.3399999983376,5fd7ee02c0a4610ea7d258b4,labelPictures,LF,26_22_21_20,tob,210325,3,low,dep,red,exp,0
21,f208my9c1t,494,html-button-response,1908,5d920df12b679a00182bbc73,labelPictures,LF,9_21_30_51,dep,210325,3,low,dep,red,exp,1
21,vzebe40w15,490,html-button-response,1538.8699999894015,5fce9a625474c41129c10fb1,labelPictures,LF,26_22_21_20,tob,210325,3,low,dep,red,exp,0
21,rhglzajksw,600,html-button-response,2608.700000011595,5ea98f445ef6ee093f4f05ec,labelPictures,FL,26_22_21_20,tob,210325,3,low,dep,red,exp,0
21,s52728tqhv,522,html-button-response,1721,6014777b8a88c449408352c5,labelPictures,LF,14_54_29_21,dep,210325,3,low,dep,red,exp,1
21,f208my9c1t,576,html-button-response,2100,5d920df12b679a00182bbc73,labelPictures,LF,26_22_21_20,tob,210325,3,low,dep,red,exp,0
21,yhakp9pfe9,492,html-button-response,2938.145000007353,5f57a42b46df8927414990fc,labelPictures,LF,9_21_30_51,dep,210325,3,low,dep,red,exp,1
21,s80pnsgly8,514,html-button-response,1988.0000000121072,5ed09b6985143f000c08b6b8,labelPictures,FL,14_54_29_21,dep,210325,3,low,dep,red,exp,1
21,yc8mkz3uaa,574,html-button-response,3083.9550000382587,5eaeb8b513f83a57d35db285,labelPictures,LF,26_22_21_20,tob,210325,3,low,dep,red,exp,0
21,371addqx7x,526,html-button-response,2398.1799999601208,5d8cd4be7bd5180017d887a3,labelPictures,FL,9_21_30_51,dep,210325,3,low,dep,red,exp,1
21,5urksolxqo,530,html-button-response,2025.1550000102725,5d10fe33fbbf3d001a56d936,labelPictures,LF,9_21_30_51,dep,210325,3,low,dep,red,exp,1
21,26fmzvup9c,502,html-button-response,1817.9700002074242,5e94262948e806768dfa43ed,labelPictures,FL,26_22_21_20,tob,210325,3,low,dep,red,exp,0
21,5urksolxqo,554,html-button-response,3132.0600000035483,5d10fe33fbbf3d001a56d936,labelPictures,LF,9_21_30_51,dep,210325,3,low,dep,red,exp,1
21,0yjn7eg9zc,598,html-button-response,2449.814999999944,5f06ee44c10cab2655ea3822,labelPictures,FL,14_54_29_21,dep,210325,3,low,dep,red,exp,1
21,e72zvev590,552,html-button-response,2178.220000001602,5e6617541d7e1a3885c45e85,labelPictures,FL,26_22_21_20,tob,210325,3,low,dep,red,exp,0
21,dn0e1jm7ff,572,html-button-response,2495.6600000004983,5e0cf83bc12a3649f4c9ee92,labelPictures,LF,14_54_29_21,dep,210325,3,low,dep,red,exp,1
21,2n2kv71sum,530,html-button-response,1727.5950000039302,5e67d9ed33e6a60542f4dfd7,labelPictures,LF,9_21_30_51,dep,210325,3,low,dep,red,exp,1
21,cpd84kvzmq,540,html-button-response,1521.3850000873208,5ed63a6d50ece703aa7bffb9,labelPictures,FL,26_22_21_20,tob,210325,3,low,dep,red,exp,0
21,3b8h3oor4p,518,html-button-response,2703.110000002198,5f61bbe3c18cc915aac68b32,labelPictures,FL,14_54_29_21,dep,210325,3,low,dep,red,exp,1
21,gqq2p40hu9,520,html-button-response,3325.25000000163,5d41aa9ec61bc300012c73f6,labelPictures,LF,14_54_29_21,dep,210325,3,low,dep,red,exp,1
21,xtbpfv8d5p,564,html-button-response,1393.3200000026263,5fbade0c4594d6b7c7d96ca9,labelPictures,FL,26_22_21_20,tob,210325,3,low,dep,red,exp,0
21,581oqcuhue,526,html-button-response,2072.9500000001863,6009c2eda21be3026447d80e,labelPictures,LF,26_22_21_20,tob,210325,3,low,dep,red,exp,0
21,nsqbzarmrc,598,html-button-response,3166.335000001709,601e9d81606b8d337ab338e4,labelPictures,FL,26_22_21_20,tob,210325,3,low,dep,red,exp,0
21,jfuskuq35s,540,html-button-response,1442,5f50e3d60305bb088998b766,labelPictures,LF,14_54_29_21,dep,210325,3,low,dep,red,exp,1
21,d1c4anqfzp,578,html-button-response,1608,5c5d6b55b7ce2100011fa04e,labelPictures,FL,26_22_21_20,tob,210325,3,low,dep,red,exp,0
21,mus0v446tm,562,html-button-response,1649.6850000038976,5f8dda4538ed0614d9ac476b,labelPictures,LF,26_22_21_20,tob,210325,3,low,dep,red,exp,0
21,yc8mkz3uaa,532,html-button-response,2737.294999998994,5eaeb8b513f83a57d35db285,labelPictures,LF,9_21_30_51,dep,210325,3,low,dep,red,exp,1
21,5qj7var04h,530,html-button-response,1817.960000000312,5f4f835cea1e870397a4d295,labelPictures,LF,26_22_21_20,tob,210325,3,low,dep,red,exp,0
21,823tgxfuz7,560,html-button-response,2899.4849999981234,5f632ea32e85353d93872c67,labelPictures,LF,26_22_21_20,tob,210325,3,low,dep,red,exp,0
21,jfuskuq35s,530,html-button-response,1578,5f50e3d60305bb088998b766,labelPictures,LF,9_21_30_51,dep,210325,3,low,dep,red,exp,1
21,b00qxzsc7o,572,html-button-response,2508.50999999966,5ffc250201d8312c325a16a5,labelPictures,FL,5_21_29_36,wug,210325,3,low,dep,red,exp,0
21,gqq2p40hu9,578,html-button-response,981.5400000007357,5d41aa9ec61bc300012c73f6,labelPictures,LF,9_21_30_51,dep,210325,3,low,dep,red,exp,1
21,ssktzegauz,554,html-button-response,1721.6449999250472,5edba672293f3b028b70eb25,labelPictures,LF,26_22_21_20,tob,210325,3,low,dep,red,exp,0
21,zq33udleq5,506,html-button-response,1819.015000000014,5ec527351fc19046fdd6cd59,labelPictures,FL,14_54_29_21,dep,210325,3,low,dep,red,exp,1
21,rhglzajksw,582,html-button-response,1840.0850000034552,5ea98f445ef6ee093f4f05ec,labelPictures,FL,5_21_29_36,wug,210325,3,low,dep,red,exp,0
21,kyb3lzn0xx,496,html-button-response,342.3500000499189,5ee9cbbbdcf662000932fb78,labelPictures,LF,14_54_29_21,dep,210325,3,low,dep,red,exp,1
21,s80pnsgly8,516,html-button-response,1765.0000000139698,5ed09b6985143f000c08b6b8,labelPictures,FL,9_21_30_51,dep,210325,3,low,dep,red,exp,1
21,e4msx463h0,506,html-button-response,1259.189999953378,5f1f04c1604e3508877cf62a,labelPictures,FL,26_22_21_20,tob,210325,3,low,dep,red,exp,0
21,dn0e1jm7ff,542,html-button-response,2324.0850000001956,5e0cf83bc12a3649f4c9ee92,labelPictures,LF,26_22_21_20,tob,210325,3,low,dep,red,exp,0
21,38cgqt2jvy,518,html-button-response,1208.7700000265613,5f83138efa73fa44e23c5237,labelPictures,FL,5_21_29_36,wug,210325,3,low,dep,red,exp,0
21,dn0e1jm7ff,520,html-button-response,825.5899999930989,5e0cf83bc12a3649f4c9ee92,labelPictures,LF,9_21_30_51,dep,210325,3,low,dep,red,exp,1
21,3b8h3oor4p,506,html-button-response,3378.759999992326,5f61bbe3c18cc915aac68b32,labelPictures,FL,14_54_29_21,dep,210325,3,low,dep,red,exp,1
21,s0xp76sxy4,542,html-button-response,2785.829999949783,5f68a907efe6b000080540be,labelPictures,LF,26_22_21_20,tob,210325,3,low,dep,red,exp,0
21,fkw1vwzc6v,556,html-button-response,1323.8550000824034,5f50d630390521264e606772,labelPictures,FL,26_22_21_20,tob,210325,3,low,dep,red,exp,0
21,38cgqt2jvy,528,html-button-response,1510.2399999741465,5f83138efa73fa44e23c5237,labelPictures,FL,5_21_29_36,wug,210325,3,low,dep,red,exp,0
21,q3zadoj47e,570,html-button-response,2148.1149999999907,5e47ad846c3d4425c60ccbe5,labelPictures,FL,26_22_21_20,tob,210325,3,low,dep,red,exp,0
21,zq33udleq5,550,html-button-response,1418.100000000326,5ec527351fc19046fdd6cd59,labelPictures,FL,14_54_29_21,dep,210325,3,low,dep,red,exp,1
21,yc8mkz3uaa,572,html-button-response,2554.2049999930896,5eaeb8b513f83a57d35db285,labelPictures,LF,9_21_30_51,dep,210325,3,low,dep,red,exp,1
21,mus0v446tm,580,html-button-response,897.2950000024866,5f8dda4538ed0614d9ac476b,labelPictures,LF,26_22_21_20,tob,210325,3,low,dep,red,exp,0
21,2n2kv71sum,520,html-button-response,2490.4249999963213,5e67d9ed33e6a60542f4dfd7,labelPictures,LF,14_54_29_21,dep,210325,3,low,dep,red,exp,1
21,2n2kv71sum,576,html-button-response,1415.19500000868,5e67d9ed33e6a60542f4dfd7,labelPictures,LF,26_22_21_20,tob,210325,3,low,dep,red,exp,0
21,d1snyw7jw6,548,html-button-response,2134.539999999106,5fc13b486833fb13fef1720b,labelPictures,LF,26_22_21_20,tob,210325,3,low,dep,red,exp,0
21,0tf06g8uzp,492,html-button-response,1759.2450000002282,5b98223fbdb1df0001f1e684,labelPictures,LF,14_54_29_21,dep,210325,3,low,dep,red,exp,1
21,0tf06g8uzp,500,html-button-response,1889.3800000000629,5b98223fbdb1df0001f1e684,labelPictures,LF,9_21_30_51,dep,210325,3,low,dep,red,exp,1
21,0tf06g8uzp,524,html-button-response,1656.1350000000093,5b98223fbdb1df0001f1e684,labelPictures,LF,26_22_21_20,tob,210325,3,low,dep,red,exp,0
21,z4xhznw88z,512,html-button-response,2052.8750000012806,5fae68d5b74c182cacbe5d6a,labelPictures,LF,9_21_30_51,dep,210325,3,low,dep,red,exp,1
21,b00qxzsc7o,546,html-button-response,3134.7549999990733,5ffc250201d8312c325a16a5,labelPictures,FL,9_21_30_51,dep,210325,3,low,dep,red,exp,1
21,0tf06g8uzp,508,html-button-response,2735.274999999965,5b98223fbdb1df0001f1e684,labelPictures,LF,26_22_21_20,tob,210325,3,low,dep,red,exp,0
21,0yjn7eg9zc,526,html-button-response,2030.3399999975227,5f06ee44c10cab2655ea3822,labelPictures,FL,26_22_21_20,tob,210325,3,low,dep,red,exp,0
21,z4xhznw88z,552,html-button-response,579.4349999997066,5fae68d5b74c182cacbe5d6a,labelPictures,LF,26_22_21_20,tob,210325,3,low,dep,red,exp,0
21,5urksolxqo,566,html-button-response,2102.1849999960978,5d10fe33fbbf3d001a56d936,labelPictures,LF,14_54_29_21,dep,210325,3,low,dep,red,exp,1
21,9x75jv8vpf,600,html-button-response,1081.1099999991711,5f34cb60fa6cf63ecf31902d,labelPictures,FL,14_54_29_21,dep,210325,3,low,dep,red,exp,1
21,v9kdh4rpsp,560,html-button-response,1251.4500000397675,5ed14691e983f5067842fd20,labelPictures,LF,14_54_29_21,dep,210325,3,low,dep,red,exp,1
21,jfuskuq35s,536,html-button-response,945,5f50e3d60305bb088998b766,labelPictures,LF,5_21_29_36,wug,210325,3,low,dep,red,exp,0
21,dn0e1jm7ff,594,html-button-response,1159.9350000033155,5e0cf83bc12a3649f4c9ee92,labelPictures,LF,26_22_21_20,tob,210325,3,low,dep,red,exp,0
21,vkybhfxevw,524,html-button-response,951.3850000003004,5f9d4170f629422451ac7fd8,labelPictures,LF,26_22_21_20,tob,210325,3,low,dep,red,exp,0
21,r4145wj5y7,588,html-button-response,1397.4699999998556,5f78b0e3b43f410c88d3af45,labelPictures,LF,26_22_21_20,tob,210325,3,low,dep,red,exp,0
21,38cgqt2jvy,516,html-button-response,1670.9800000535324,5f83138efa73fa44e23c5237,labelPictures,FL,9_21_30_51,dep,210325,3,low,dep,red,exp,1
21,s0xp76sxy4,544,html-button-response,3174.925000173971,5f68a907efe6b000080540be,labelPictures,LF,9_21_30_51,dep,210325,3,low,dep,red,exp,1
21,gcrz58pdx0,594,html-button-response,3150.610000011511,5f9b106e21189e2d3b853846,labelPictures,LF,14_54_29_21,dep,210325,3,low,dep,red,exp,1
21,yhakp9pfe9,538,html-button-response,2674.4199999957345,5f57a42b46df8927414990fc,labelPictures,LF,26_22_21_20,tob,210325,3,low,dep,red,exp,0
21,3b8h3oor4p,548,html-button-response,2683.6049999983516,5f61bbe3c18cc915aac68b32,labelPictures,FL,26_22_21_20,tob,210325,3,low,dep,red,exp,0
21,5qj7var04h,536,html-button-response,3455.099999999278,5f4f835cea1e870397a4d295,labelPictures,LF,26_22_21_20,tob,210325,3,low,dep,red,exp,0
21,s52728tqhv,576,html-button-response,3251,6014777b8a88c449408352c5,labelPictures,LF,9_21_30_51,dep,210325,3,low,dep,red,exp,1
21,oqwgn1zhn1,556,html-button-response,1426,5eb5cb8ddef42c4ad1456dd9,labelPictures,FL,26_22_21_20,tob,210325,3,low,dep,red,exp,0
21,z4xhznw88z,498,html-button-response,1410.4400000032037,5fae68d5b74c182cacbe5d6a,labelPictures,LF,14_54_29_21,dep,210325,3,low,dep,red,exp,1
21,f9gvt2ubve,540,html-button-response,1770,5f529cd9e0a90c58773ec3fe,labelPictures,LF,26_22_21_20,tob,210325,3,low,dep,red,exp,0
21,x8lrz32hbv,572,html-button-response,581.6249999997672,5e7b899a6b890e0659e5e82e,labelPictures,FL,26_22_21_20,tob,210325,3,low,dep,red,exp,0
21,b00qxzsc7o,510,html-button-response,1720.0499999999302,5ffc250201d8312c325a16a5,labelPictures,FL,9_21_30_51,dep,210325,3,low,dep,red,exp,1
21,rhglzajksw,508,html-button-response,1150.885000010021,5ea98f445ef6ee093f4f05ec,labelPictures,FL,26_22_21_20,tob,210325,3,low,dep,red,exp,0
21,lpb8r8jcs5,598,html-button-response,2433.690000005299,5dc1e79c880a2915309a8ee3,labelPictures,LF,9_21_30_51,dep,210325,3,low,dep,red,exp,1
21,9x75jv8vpf,560,html-button-response,1497.0549999998184,5f34cb60fa6cf63ecf31902d,labelPictures,FL,14_54_29_21,dep,210325,3,low,dep,red,exp,1
21,v9kdh4rpsp,520,html-button-response,1307.6400000136346,5ed14691e983f5067842fd20,labelPictures,LF,9_21_30_51,dep,210325,3,low,dep,red,exp,1
21,53gv7n4gtu,568,html-button-response,1921.4449999999488,601fd3cd92f028532a257baf,labelPictures,LF,9_21_30_51,dep,210325,3,low,dep,red,exp,1
21,t5ex7zbfo2,530,html-button-response,582.6799999995856,5fd7ee02c0a4610ea7d258b4,labelPictures,LF,26_22_21_20,tob,210325,3,low,dep,red,exp,0
21,823tgxfuz7,528,html-button-response,2595.3200000004144,5f632ea32e85353d93872c67,labelPictures,LF,26_22_21_20,tob,210325,3,low,dep,red,exp,0
21,fkw1vwzc6v,586,html-button-response,1455.8550000656396,5f50d630390521264e606772,labelPictures,FL,26_22_21_20,tob,210325,3,low,dep,red,exp,0
21,zq33udleq5,558,html-button-response,971.2700000000186,5ec527351fc19046fdd6cd59,labelPictures,FL,9_21_30_51,dep,210325,3,low,dep,red,exp,1
21,b576vfvfdd,568,html-button-response,1967,5ea85cf4ad1f760a537eadfe,labelPictures,FL,26_22_21_20,tob,210325,3,low,dep,red,exp,0
21,q3zadoj47e,506,html-button-response,1574.3700000002864,5e47ad846c3d4425c60ccbe5,labelPictures,FL,14_54_29_21,dep,210325,3,low,dep,red,exp,1
21,gcrz58pdx0,512,html-button-response,2421.0350000066683,5f9b106e21189e2d3b853846,labelPictures,LF,9_21_30_51,dep,210325,3,low,dep,red,exp,1
21,cpd84kvzmq,530,html-button-response,1099.2499999701977,5ed63a6d50ece703aa7bffb9,labelPictures,FL,26_22_21_20,tob,210325,3,low,dep,red,exp,0
21,26fmzvup9c,496,html-button-response,1557.9450000077486,5e94262948e806768dfa43ed,labelPictures,FL,26_22_21_20,tob,210325,3,low,dep,red,exp,0
21,s80pnsgly8,576,html-button-response,2005.0000000046566,5ed09b6985143f000c08b6b8,labelPictures,FL,5_21_29_36,wug,210325,3,low,dep,red,exp,0
21,yc8mkz3uaa,494,html-button-response,2253.1200000084937,5eaeb8b513f83a57d35db285,labelPictures,LF,26_22_21_20,tob,210325,3,low,dep,red,exp,0
21,lpb8r8jcs5,514,html-button-response,3401.3400000112597,5dc1e79c880a2915309a8ee3,labelPictures,LF,14_54_29_21,dep,210325,3,low,dep,red,exp,1
21,b00qxzsc7o,512,html-button-response,1470.4349999993574,5ffc250201d8312c325a16a5,labelPictures,FL,14_54_29_21,dep,210325,3,low,dep,red,exp,1
21,v9kdh4rpsp,528,html-button-response,1621.4550000149757,5ed14691e983f5067842fd20,labelPictures,LF,14_54_29_21,dep,210325,3,low,dep,red,exp,1
21,b00qxzsc7o,522,html-button-response,1856.5849999977509,5ffc250201d8312c325a16a5,labelPictures,FL,26_22_21_20,tob,210325,3,low,dep,red,exp,0
21,yc8mkz3uaa,530,html-button-response,2555.925000051502,5eaeb8b513f83a57d35db285,labelPictures,LF,14_54_29_21,dep,210325,3,low,dep,red,exp,1
21,55ovzw4068,582,html-button-response,2026.7299999977695,5f830f1644cc14447b03305c,labelPictures,FL,26_22_21_20,tob,210325,3,low,dep,red,exp,0
21,f9gvt2ubve,590,html-button-response,2545,5f529cd9e0a90c58773ec3fe,labelPictures,LF,26_22_21_20,tob,210325,3,low,dep,red,exp,0
21,vkybhfxevw,592,html-button-response,898.7850000011967,5f9d4170f629422451ac7fd8,labelPictures,LF,26_22_21_20,tob,210325,3,low,dep,red,exp,0
21,9y1b9uh65r,546,html-button-response,559.1550000099232,5daca079bf590700167f704d,labelPictures,LF,26_22_21_20,tob,210325,3,low,dep,red,exp,0
21,9x75jv8vpf,530,html-button-response,2037.594999997993,5f34cb60fa6cf63ecf31902d,labelPictures,FL,9_21_30_51,dep,210325,3,low,dep,red,exp,1
21,9x75jv8vpf,528,html-button-response,2886.2849999968894,5f34cb60fa6cf63ecf31902d,labelPictures,FL,26_22_21_20,tob,210325,3,low,dep,red,exp,0
21,4xwhpmkg0h,494,html-button-response,1684.744999999646,5ef12a14ab53a21a9012b389,labelPictures,FL,9_21_30_51,dep,210325,3,low,dep,red,exp,1
21,daqg5rc8xw,550,html-button-response,1753.5850000567734,5eadc934201643479a185e59,labelPictures,LF,26_22_21_20,tob,210325,3,low,dep,red,exp,0
21,98ysefwhzk,582,html-button-response,3288.3700000238605,5f482f05cd5e5d2d1d57c1ff,labelPictures,LF,26_22_21_20,tob,210325,3,low,dep,red,exp,0
21,gqq2p40hu9,576,html-button-response,3042.8150000006426,5d41aa9ec61bc300012c73f6,labelPictures,LF,9_21_30_51,dep,210325,3,low,dep,red,exp,1
21,5urksolxqo,522,html-button-response,2508.510000014212,5d10fe33fbbf3d001a56d936,labelPictures,LF,14_54_29_21,dep,210325,3,low,dep,red,exp,1
21,gqq2p40hu9,512,html-button-response,3145.2350000001024,5d41aa9ec61bc300012c73f6,labelPictures,LF,26_22_21_20,tob,210325,3,low,dep,red,exp,0
21,53gv7n4gtu,542,html-button-response,2531.295000000624,601fd3cd92f028532a257baf,labelPictures,LF,14_54_29_21,dep,210325,3,low,dep,red,exp,1
21,zt96waez4c,600,html-button-response,866.8649999999907,5daca66b71a51b00113172ce,labelPictures,LF,26_22_21_20,tob,210325,3,low,dep,red,exp,0
21,581oqcuhue,548,html-button-response,1641.4899999999907,6009c2eda21be3026447d80e,labelPictures,LF,26_22_21_20,tob,210325,3,low,dep,red,exp,0
21,9y1b9uh65r,600,html-button-response,314.47499999194406,5daca079bf590700167f704d,labelPictures,LF,9_21_30_51,dep,210325,3,low,dep,red,exp,1
21,2n2kv71sum,490,html-button-response,2075.5300000018906,5e67d9ed33e6a60542f4dfd7,labelPictures,LF,9_21_30_51,dep,210325,3,low,dep,red,exp,1
21,32gxlbaw1s,516,html-button-response,2245.295000000624,5ea2381ad0a4b71481c298e7,labelPictures,LF,26_22_21_20,tob,210325,3,low,dep,red,exp,0
21,r4145wj5y7,534,html-button-response,1705.8550000000978,5f78b0e3b43f410c88d3af45,labelPictures,LF,9_21_30_51,dep,210325,3,low,dep,red,exp,1
21,oqwgn1zhn1,510,html-button-response,1280,5eb5cb8ddef42c4ad1456dd9,labelPictures,FL,26_22_21_20,tob,210325,3,low,dep,red,exp,0
21,d1c4anqfzp,568,html-button-response,1412,5c5d6b55b7ce2100011fa04e,labelPictures,FL,26_22_21_20,tob,210325,3,low,dep,red,exp,0
21,kyb3lzn0xx,554,html-button-response,477.7300001587719,5ee9cbbbdcf662000932fb78,labelPictures,LF,26_22_21_20,tob,210325,3,low,dep,red,exp,0
21,32gxlbaw1s,530,html-button-response,3069.9150000000373,5ea2381ad0a4b71481c298e7,labelPictures,LF,26_22_21_20,tob,210325,3,low,dep,red,exp,0
21,jxvpkh0u3z,572,html-button-response,2030.6149999960326,5fd74512393436000a1a7323,labelPictures,FL,26_22_21_20,tob,210325,3,low,dep,red,exp,0
21,gqq2p40hu9,518,html-button-response,2484.0599999988917,5d41aa9ec61bc300012c73f6,labelPictures,LF,26_22_21_20,tob,210325,3,low,dep,red,exp,0
21,nsqbzarmrc,548,html-button-response,1054.0700000019278,601e9d81606b8d337ab338e4,labelPictures,FL,26_22_21_20,tob,210325,3,low,dep,red,exp,0
21,s52728tqhv,504,html-button-response,3253,6014777b8a88c449408352c5,labelPictures,LF,9_21_30_51,dep,210325,3,low,dep,red,exp,1
21,sxbrz00bs5,498,html-button-response,2581,5ee7335388010f4c1b6bbdc2,labelPictures,LF,9_21_30_51,dep,210325,3,low,dep,red,exp,1
21,v9kdh4rpsp,572,html-button-response,936.1349999671802,5ed14691e983f5067842fd20,labelPictures,LF,9_21_30_51,dep,210325,3,low,dep,red,exp,1
21,jxvpkh0u3z,490,html-button-response,1116.4799999678507,5fd74512393436000a1a7323,labelPictures,FL,26_22_21_20,tob,210325,3,low,dep,red,exp,0
21,5urksolxqo,596,html-button-response,755.6800000020303,5d10fe33fbbf3d001a56d936,labelPictures,LF,26_22_21_20,tob,210325,3,low,dep,red,exp,0
21,s52728tqhv,552,html-button-response,2129,6014777b8a88c449408352c5,labelPictures,LF,26_22_21_20,tob,210325,3,low,dep,red,exp,0
21,e72zvev590,588,html-button-response,1178.1949999858625,5e6617541d7e1a3885c45e85,labelPictures,FL,26_22_21_20,tob,210325,3,low,dep,red,exp,0
21,s0xp76sxy4,564,html-button-response,2988.8949999585748,5f68a907efe6b000080540be,labelPictures,LF,5_21_29_36,wug,210325,3,low,dep,red,exp,0
21,e72zvev590,490,html-button-response,2119.2750000045635,5e6617541d7e1a3885c45e85,labelPictures,FL,9_21_30_51,dep,210325,3,low,dep,red,exp,1
21,371addqx7x,600,html-button-response,2969.4049999816343,5d8cd4be7bd5180017d887a3,labelPictures,FL,9_21_30_51,dep,210325,3,low,dep,red,exp,1
21,f9gvt2ubve,536,html-button-response,2506,5f529cd9e0a90c58773ec3fe,labelPictures,LF,14_54_29_21,dep,210325,3,low,dep,red,exp,1
21,daqg5rc8xw,492,html-button-response,2219.834999879822,5eadc934201643479a185e59,labelPictures,LF,26_22_21_20,tob,210325,3,low,dep,red,exp,0
21,5urksolxqo,594,html-button-response,2308.020000025863,5d10fe33fbbf3d001a56d936,labelPictures,LF,26_22_21_20,tob,210325,3,low,dep,red,exp,0
21,gcrz58pdx0,576,html-button-response,885.7399999978952,5f9b106e21189e2d3b853846,labelPictures,LF,26_22_21_20,tob,210325,3,low,dep,red,exp,0
21,s52728tqhv,496,html-button-response,1751,6014777b8a88c449408352c5,labelPictures,LF,26_22_21_20,tob,210325,3,low,dep,red,exp,0
21,b00qxzsc7o,578,html-button-response,2219.3299999998417,5ffc250201d8312c325a16a5,labelPictures,FL,5_21_29_36,wug,210325,3,low,dep,red,exp,0
21,sxbrz00bs5,578,html-button-response,1293,5ee7335388010f4c1b6bbdc2,labelPictures,LF,9_21_30_51,dep,210325,3,low,dep,red,exp,1
22,lpb8r8jcs5,580,html-button-response,2573.11500000651,5dc1e79c880a2915309a8ee3,labelPictures,LF,26_48_40_22,wug,220225,2,low,wug,blue,exp,1
22,sxbrz00bs5,558,html-button-response,1363,5ee7335388010f4c1b6bbdc2,labelPictures,LF,26_22_21_20,tob,220225,2,low,wug,blue,exp,0
22,e4msx463h0,568,html-button-response,2206.6600000252947,5f1f04c1604e3508877cf62a,labelPictures,FL,26_48_40_22,wug,220225,2,low,wug,blue,exp,1
22,cpd84kvzmq,542,html-button-response,1868.4449999127537,5ed63a6d50ece703aa7bffb9,labelPictures,FL,26_48_40_22,wug,220225,2,low,wug,blue,exp,1
22,s0xp76sxy4,520,html-button-response,2914.3850000109524,5f68a907efe6b000080540be,labelPictures,LF,26_22_21_20,tob,220225,2,low,wug,blue,exp,0
22,d1c4anqfzp,504,html-button-response,2128,5c5d6b55b7ce2100011fa04e,labelPictures,FL,26_48_40_22,wug,220225,2,low,wug,blue,exp,1
22,53gv7n4gtu,496,html-button-response,886.0000000004075,601fd3cd92f028532a257baf,labelPictures,LF,26_22_21_20,tob,220225,2,low,wug,blue,exp,0
22,z4xhznw88z,584,html-button-response,836.0250000006054,5fae68d5b74c182cacbe5d6a,labelPictures,LF,26_22_21_20,tob,220225,2,low,wug,blue,exp,0
22,lpb8r8jcs5,558,html-button-response,2272.9350000154227,5dc1e79c880a2915309a8ee3,labelPictures,LF,26_48_40_22,wug,220225,2,low,wug,blue,exp,1
22,vzebe40w15,582,html-button-response,1305.9849999845028,5fce9a625474c41129c10fb1,labelPictures,LF,26_48_40_22,wug,220225,2,low,wug,blue,exp,1
22,s0xp76sxy4,594,html-button-response,1875.8449999149889,5f68a907efe6b000080540be,labelPictures,LF,26_48_40_22,wug,220225,2,low,wug,blue,exp,1
22,xtbpfv8d5p,492,html-button-response,1945.0500000095926,5fbade0c4594d6b7c7d96ca9,labelPictures,FL,26_22_21_20,tob,220225,2,low,wug,blue,exp,0
22,s80pnsgly8,594,html-button-response,2739.999999990687,5ed09b6985143f000c08b6b8,labelPictures,FL,26_22_21_20,tob,220225,2,low,wug,blue,exp,0
22,fkw1vwzc6v,576,html-button-response,1878.3600002061576,5f50d630390521264e606772,labelPictures,FL,26_48_40_22,wug,220225,2,low,wug,blue,exp,1
22,jfuskuq35s,504,html-button-response,883,5f50e3d60305bb088998b766,labelPictures,LF,26_22_21_20,tob,220225,2,low,wug,blue,exp,0
22,sxbrz00bs5,566,html-button-response,1425,5ee7335388010f4c1b6bbdc2,labelPictures,LF,26_22_21_20,tob,220225,2,low,wug,blue,exp,0
22,s80pnsgly8,524,html-button-response,1572.9999999748543,5ed09b6985143f000c08b6b8,labelPictures,FL,26_22_21_20,tob,220225,2,low,wug,blue,exp,0
22,3b8h3oor4p,596,html-button-response,1145.9200000099372,5f61bbe3c18cc915aac68b32,labelPictures,FL,26_22_21_20,tob,220225,2,low,wug,blue,exp,0
22,kyb3lzn0xx,574,html-button-response,156.36499994434416,5ee9cbbbdcf662000932fb78,labelPictures,LF,26_22_21_20,tob,220225,2,low,wug,blue,exp,0
22,v9kdh4rpsp,556,html-button-response,1923.0949999764562,5ed14691e983f5067842fd20,labelPictures,LF,26_22_21_20,tob,220225,2,low,wug,blue,exp,0
22,b00qxzsc7o,590,html-button-response,3080.960000002873,5ffc250201d8312c325a16a5,labelPictures,FL,26_48_40_22,wug,220225,2,low,wug,blue,exp,1
22,ssktzegauz,536,html-button-response,1255.9599997475743,5edba672293f3b028b70eb25,labelPictures,LF,26_22_21_20,tob,220225,2,low,wug,blue,exp,0
22,f208my9c1t,520,html-button-response,3091,5d920df12b679a00182bbc73,labelPictures,LF,26_22_21_20,tob,220225,2,low,wug,blue,exp,0
22,zq33udleq5,540,html-button-response,1262.9699999997392,5ec527351fc19046fdd6cd59,labelPictures,FL,26_22_21_20,tob,220225,2,low,wug,blue,exp,0
22,371addqx7x,510,html-button-response,3317.7850000211038,5d8cd4be7bd5180017d887a3,labelPictures,FL,26_22_21_20,tob,220225,2,low,wug,blue,exp,0
22,d1c4anqfzp,498,html-button-response,2112,5c5d6b55b7ce2100011fa04e,labelPictures,FL,26_48_40_22,wug,220225,2,low,wug,blue,exp,1
22,53gv7n4gtu,544,html-button-response,2666.9349999993574,601fd3cd92f028532a257baf,labelPictures,LF,26_48_40_22,wug,220225,2,low,wug,blue,exp,1
22,dn0e1jm7ff,548,html-button-response,2865.7749999983935,5e0cf83bc12a3649f4c9ee92,labelPictures,LF,26_48_40_22,wug,220225,2,low,wug,blue,exp,1
22,jfuskuq35s,542,html-button-response,1552,5f50e3d60305bb088998b766,labelPictures,LF,26_48_40_22,wug,220225,2,low,wug,blue,exp,1
22,s80pnsgly8,534,html-button-response,1452.999999979511,5ed09b6985143f000c08b6b8,labelPictures,FL,26_48_40_22,wug,220225,2,low,wug,blue,exp,1
22,zq33udleq5,534,html-button-response,1358.5499999999302,5ec527351fc19046fdd6cd59,labelPictures,FL,26_22_21_20,tob,220225,2,low,wug,blue,exp,0
22,zt96waez4c,558,html-button-response,1116.2399999994086,5daca66b71a51b00113172ce,labelPictures,LF,26_22_21_20,tob,220225,2,low,wug,blue,exp,0
22,s52728tqhv,584,html-button-response,2124,6014777b8a88c449408352c5,labelPictures,LF,26_48_40_22,wug,220225,2,low,wug,blue,exp,1
22,v9kdh4rpsp,598,html-button-response,1672.9750000522472,5ed14691e983f5067842fd20,labelPictures,LF,26_22_21_20,tob,220225,2,low,wug,blue,exp,0
22,0yjn7eg9zc,596,html-button-response,1838.6949999985518,5f06ee44c10cab2655ea3822,labelPictures,FL,26_22_21_20,tob,220225,2,low,wug,blue,exp,0
22,s52728tqhv,594,html-button-response,3222,6014777b8a88c449408352c5,labelPictures,LF,26_48_40_22,wug,220225,2,low,wug,blue,exp,1
23,qnx5xathwg,590,html-button-response,373.0949999880977,5cc7f4b3854fb30001d0c13a,labelPictures,LF,26_23_25_28,bim,230325,3,low,dep,red,control,0
23,zt96waez4c,556,html-button-response,1800.54000000027,5daca66b71a51b00113172ce,labelPictures,LF,5_23_48_51,wug,230325,3,low,dep,red,exp,0
23,kyb3lzn0xx,588,html-button-response,108.75000013038516,5ee9cbbbdcf662000932fb78,labelPictures,LF,26_23_25_28,bim,230325,3,low,dep,red,control,0
23,b00qxzsc7o,576,html-button-response,3140.739999998943,5ffc250201d8312c325a16a5,labelPictures,FL,5_23_48_51,wug,230325,3,low,dep,red,exp,0
23,9y1b9uh65r,548,html-button-response,425.88000000978354,5daca079bf590700167f704d,labelPictures,LF,26_23_25_28,bim,230325,3,low,dep,red,control,0
23,zt96waez4c,550,html-button-response,1450.7849999991013,5daca66b71a51b00113172ce,labelPictures,LF,5_23_48_51,wug,230325,3,low,dep,red,exp,0
23,6j0z0b0c72,542,html-button-response,2892.550000018673,5ea44104a980d23d4f21f7ad,labelPictures,LF,5_23_48_51,wug,230325,3,low,dep,red,exp,0
23,s80pnsgly8,492,html-button-response,166.0000000265427,5ed09b6985143f000c08b6b8,labelPictures,FL,5_23_48_51,wug,230325,3,low,dep,red,exp,0
23,9y1b9uh65r,526,html-button-response,769.4999999948777,5daca079bf590700167f704d,labelPictures,LF,5_23_48_51,wug,230325,3,low,dep,red,exp,0
23,38cgqt2jvy,580,html-button-response,1039.284999947995,5f83138efa73fa44e23c5237,labelPictures,FL,26_23_25_28,bim,230325,3,low,dep,red,control,0
23,x8lrz32hbv,600,html-button-response,1130.574999999255,5e7b899a6b890e0659e5e82e,labelPictures,FL,5_23_48_51,wug,230325,3,low,dep,red,exp,0
23,b00qxzsc7o,600,html-button-response,2760.9149999989895,5ffc250201d8312c325a16a5,labelPictures,FL,5_23_48_51,wug,230325,3,low,dep,red,exp,0
