fribbleID,subjID,trial_index,plugin,rt,prolificID,task,resp,learning,label,fribbleFeatures,correctCategory,correctFrequency,correctLabel,body,trialType,acc
1,hc4uh4u04h,490,image-button-response,1505,5f5d6c3cbacc025bf0a03440,pictureLabels,dep,FL,tobdepwugbim,10375,3,high,dep,blue,exp,1
1,pmz1eqhg0u,490,image-button-response,3489,5f1bfe98441e2743f34fa16a,pictureLabels,bim,LF,tobdepwugbim,10375,3,high,dep,blue,exp,0
1,cjpw7y8c1k,490,image-button-response,2076,5efdc12f5d69f622915a97a1,pictureLabels,dep,LF,tobdepwugbim,10375,3,high,dep,blue,exp,1
1,kfhtlqkth4,490,image-button-response,2974,5edf8803c008532459792282,pictureLabels,bim,FL,tobdepwugbim,10375,3,high,dep,blue,exp,0
1,67zqwpqc3v,490,image-button-response,1339,5ea3066769713007dfc5f1c3,pictureLabels,dep,LF,tobdepwugbim,10375,3,high,dep,blue,exp,1
1,3a2waojqmg,490,image-button-response,1252,5e6a2c7c5b057b08e930e89d,pictureLabels,wug,FL,tobdepwugbim,10375,3,high,dep,blue,exp,0
1,o7w146d4yj,490,image-button-response,1584,5f343de4d0c07630b7f90b92,pictureLabels,dep,LF,tobdepwugbim,10375,3,high,dep,blue,exp,1
1,1e9hhup9lf,490,image-button-response,1826,5cbc680bfb8dfe0001839ba2,pictureLabels,bim,LF,tobdepwugbim,10375,3,high,dep,blue,exp,0
1,mvqchu948c,490,image-button-response,2024,5b421b9ac2e3810001763252,pictureLabels,tob,FL,tobdepwugbim,10375,3,high,dep,blue,exp,0
1,71bdswcm9k,490,image-button-response,1415,5f591a5a9a49e211efead835,pictureLabels,tob,LF,tobdepwugbim,10375,3,high,dep,blue,exp,0
1,1gynr5ywqp,490,image-button-response,1269,5db1bba0e20f58000b8717f6,pictureLabels,bim,FL,tobdepwugbim,10375,3,high,dep,blue,exp,0
1,ym6cxam2f3,490,image-button-response,1386,5ee87dba82ed8101333c7744,pictureLabels,dep,FL,tobdepwugbim,10375,3,high,dep,blue,exp,1
1,e4s1gf870t,490,image-button-response,NA,5f677b748c011837e12cba61,pictureLabels,NA,FL,tobdepwugbim,10375,3,high,dep,blue,exp,NA
1,8706z1pc24,490,image-button-response,1693,5c916456ec114b0016418dca,pictureLabels,dep,LF,tobdepwugbim,10375,3,high,dep,blue,exp,1
1,85gul0f7qh,490,image-button-response,2695,5e4ab1b4ca765d000edebd15,pictureLabels,dep,LF,tobdepwugbim,10375,3,high,dep,blue,exp,1
1,wod6ma11s3,490,image-button-response,1827,5f8228f40afba53534e6f583,pictureLabels,dep,FL,tobdepwugbim,10375,3,high,dep,blue,exp,1
1,pbt3n7l1gj,490,image-button-response,1368,5f63d70e4e460f141abccbc1,pictureLabels,dep,FL,tobdepwugbim,10375,3,high,dep,blue,exp,1
1,ek1v85vere,490,image-button-response,1877,5bdcd99964215c0001282b34,pictureLabels,dep,LF,tobdepwugbim,10375,3,high,dep,blue,exp,1
1,4euvjgbfcc,490,image-button-response,2010,600355394a113e408f54cce5,pictureLabels,bim,LF,tobdepwugbim,10375,3,high,dep,blue,exp,0
1,uyc3tp4v50,490,image-button-response,2646,6017d6a23bdebea5e9062e9d,pictureLabels,dep,FL,tobdepwugbim,10375,3,high,dep,blue,exp,1
1,ufb4y7bj2f,490,image-button-response,1208,5c2ce112f422870001fcab1f,pictureLabels,dep,FL,tobdepwugbim,10375,3,high,dep,blue,exp,1
1,qfloq0vkd1,490,image-button-response,2220,5acb896da3ba7a0001b4e99f,pictureLabels,dep,LF,tobdepwugbim,10375,3,high,dep,blue,exp,1
1,9q76krfydn,490,image-button-response,1159,5f3d9a9f10a5f219cfe0b404,pictureLabels,dep,FL,tobdepwugbim,10375,3,high,dep,blue,exp,1
1,5g2fbehb04,490,image-button-response,2441,591a1f4800a5650001276188,pictureLabels,dep,FL,tobdepwugbim,10375,3,high,dep,blue,exp,1
1,j07stgzsr2,490,image-button-response,2219,5d77c0eb4a666c0019561a80,pictureLabels,dep,FL,tobdepwugbim,10375,3,high,dep,blue,exp,1
1,g8ez0w4wvj,490,image-button-response,3336,5ec32348079dcc17451cac16,pictureLabels,dep,FL,tobdepwugbim,10375,3,high,dep,blue,exp,1
1,t2ubvm70lv,490,image-button-response,2261,5f858743256d25036d9fa693,pictureLabels,wug,LF,tobdepwugbim,10375,3,high,dep,blue,exp,0
1,jlov66vr8s,490,image-button-response,2513,5fc65eb000091528ea745f65,pictureLabels,tob,FL,tobdepwugbim,10375,3,high,dep,blue,exp,0
1,t8qovvqyjq,490,image-button-response,1635,5f89cbc45b38f5016101011c,pictureLabels,dep,FL,tobdepwugbim,10375,3,high,dep,blue,exp,1
1,3mctt6t3lt,490,image-button-response,3470,5b3cb17b6779080001fe88c1,pictureLabels,dep,FL,tobdepwugbim,10375,3,high,dep,blue,exp,1
1,rl7z98kzoa,490,image-button-response,1893,5faa8121f8f5533a5c7f7a20,pictureLabels,wug,LF,tobdepwugbim,10375,3,high,dep,blue,exp,0
1,pusqm5jv5t,490,image-button-response,2391,5f477a85d919ec03cadfaddd,pictureLabels,wug,FL,tobdepwugbim,10375,3,high,dep,blue,exp,0
1,e9dxj57s6l,490,image-button-response,2031,5eb58476f88d4008fa483809,pictureLabels,dep,FL,tobdepwugbim,10375,3,high,dep,blue,exp,1
1,q963ed16o4,490,image-button-response,1487,6006cf1238099707863fc7b4,pictureLabels,dep,FL,tobdepwugbim,10375,3,high,dep,blue,exp,1
1,w2brxm7ay2,490,image-button-response,2272,5f60713e595007000a8e1da7,pictureLabels,wug,FL,tobdepwugbim,10375,3,high,dep,blue,exp,0
1,y20qp8dcxo,490,image-button-response,3167,5f578563765fec223eb51594,pictureLabels,dep,LF,tobdepwugbim,10375,3,high,dep,blue,exp,1
1,hcnkaylepg,490,image-button-response,NA,5ce8ebe9c9379d0019898681,pictureLabels,NA,FL,tobdepwugbim,10375,3,high,dep,blue,exp,NA
1,163k2z1uov,490,image-button-response,1535,5f11ccbc1a1a2c08b4a99efb,pictureLabels,tob,LF,tobdepwugbim,10375,3,high,dep,blue,exp,0
1,fggxxfkvfo,490,image-button-response,2115,5fbfb86436a5de31c546f37b,pictureLabels,dep,LF,tobdepwugbim,10375,3,high,dep,blue,exp,1
1,8k7ujzqkju,490,image-button-response,599,5e8b2e599abd417d9512a877,pictureLabels,wug,LF,tobdepwugbim,10375,3,high,dep,blue,exp,0
1,aj9q5o0gf2,490,image-button-response,2278,5b01e69aa496b300013d5b9b,pictureLabels,bim,FL,tobdepwugbim,10375,3,high,dep,blue,exp,0
1,ol68ft1h8h,490,image-button-response,2370,5e5e17c97593e912e086c640,pictureLabels,wug,FL,tobdepwugbim,10375,3,high,dep,blue,exp,0
1,ker7u0dhxt,490,image-button-response,NA,5c87d68fe5bc060001ee8498,pictureLabels,NA,FL,tobdepwugbim,10375,3,high,dep,blue,exp,NA
1,yj9gmh2tyv,490,image-button-response,3037,5e8dcc81e6686e035680594e,pictureLabels,dep,LF,tobdepwugbim,10375,3,high,dep,blue,exp,1
1,ffbjr4pqha,490,image-button-response,2141,6009c27b9e9b700266fd52b5,pictureLabels,dep,FL,tobdepwugbim,10375,3,high,dep,blue,exp,1
1,xekfnorue1,490,image-button-response,NA,5a11a7d0f2e3460001edbe35,pictureLabels,NA,FL,tobdepwugbim,10375,3,high,dep,blue,exp,NA
1,psp3bt1vuy,490,image-button-response,1868,5933d3c4ed2e9a0001d37ab4,pictureLabels,dep,FL,tobdepwugbim,10375,3,high,dep,blue,exp,1
1,xu8vthdm2k,490,image-button-response,1581,5f85eb74d99dd00d735c107f,pictureLabels,dep,FL,tobdepwugbim,10375,3,high,dep,blue,exp,1
1,o0xz7vf2yt,490,image-button-response,NA,5f2b196c0c610f4ec3eb5451,pictureLabels,NA,LF,tobdepwugbim,10375,3,high,dep,blue,exp,NA
10,67zqwpqc3v,508,image-button-response,766,5ea3066769713007dfc5f1c3,pictureLabels,tob,LF,tobdepwugbim,100275,2,high,wug,purple,exp,0
10,3a2waojqmg,508,image-button-response,1210,5e6a2c7c5b057b08e930e89d,pictureLabels,wug,FL,tobdepwugbim,100275,2,high,wug,purple,exp,1
10,o7w146d4yj,508,image-button-response,881,5f343de4d0c07630b7f90b92,pictureLabels,wug,LF,tobdepwugbim,100275,2,high,wug,purple,exp,1
10,yj9gmh2tyv,508,image-button-response,3018,5e8dcc81e6686e035680594e,pictureLabels,wug,LF,tobdepwugbim,100275,2,high,wug,purple,exp,1
10,q963ed16o4,508,image-button-response,1117,6006cf1238099707863fc7b4,pictureLabels,wug,FL,tobdepwugbim,100275,2,high,wug,purple,exp,1
10,rl7z98kzoa,508,image-button-response,815,5faa8121f8f5533a5c7f7a20,pictureLabels,wug,LF,tobdepwugbim,100275,2,high,wug,purple,exp,1
10,pusqm5jv5t,508,image-button-response,1779,5f477a85d919ec03cadfaddd,pictureLabels,wug,FL,tobdepwugbim,100275,2,high,wug,purple,exp,1
10,e9dxj57s6l,508,image-button-response,1685,5eb58476f88d4008fa483809,pictureLabels,wug,FL,tobdepwugbim,100275,2,high,wug,purple,exp,1
10,163k2z1uov,508,image-button-response,1077,5f11ccbc1a1a2c08b4a99efb,pictureLabels,dep,LF,tobdepwugbim,100275,2,high,wug,purple,exp,0
10,w2brxm7ay2,508,image-button-response,755,5f60713e595007000a8e1da7,pictureLabels,wug,FL,tobdepwugbim,100275,2,high,wug,purple,exp,1
10,y20qp8dcxo,508,image-button-response,1389,5f578563765fec223eb51594,pictureLabels,wug,LF,tobdepwugbim,100275,2,high,wug,purple,exp,1
10,hcnkaylepg,508,image-button-response,1505,5ce8ebe9c9379d0019898681,pictureLabels,wug,FL,tobdepwugbim,100275,2,high,wug,purple,exp,1
10,t8qovvqyjq,508,image-button-response,872,5f89cbc45b38f5016101011c,pictureLabels,wug,FL,tobdepwugbim,100275,2,high,wug,purple,exp,1
10,3mctt6t3lt,508,image-button-response,1060,5b3cb17b6779080001fe88c1,pictureLabels,wug,FL,tobdepwugbim,100275,2,high,wug,purple,exp,1
10,kfhtlqkth4,508,image-button-response,3143,5edf8803c008532459792282,pictureLabels,wug,FL,tobdepwugbim,100275,2,high,wug,purple,exp,1
10,ek1v85vere,508,image-button-response,1656,5bdcd99964215c0001282b34,pictureLabels,wug,LF,tobdepwugbim,100275,2,high,wug,purple,exp,1
10,4euvjgbfcc,508,image-button-response,878,600355394a113e408f54cce5,pictureLabels,wug,LF,tobdepwugbim,100275,2,high,wug,purple,exp,1
10,psp3bt1vuy,508,image-button-response,1074,5933d3c4ed2e9a0001d37ab4,pictureLabels,wug,FL,tobdepwugbim,100275,2,high,wug,purple,exp,1
10,uyc3tp4v50,508,image-button-response,767,6017d6a23bdebea5e9062e9d,pictureLabels,wug,FL,tobdepwugbim,100275,2,high,wug,purple,exp,1
10,1e9hhup9lf,508,image-button-response,1343,5cbc680bfb8dfe0001839ba2,pictureLabels,dep,LF,tobdepwugbim,100275,2,high,wug,purple,exp,0
10,mvqchu948c,508,image-button-response,1251,5b421b9ac2e3810001763252,pictureLabels,wug,FL,tobdepwugbim,100275,2,high,wug,purple,exp,1
10,1gynr5ywqp,508,image-button-response,558,5db1bba0e20f58000b8717f6,pictureLabels,wug,FL,tobdepwugbim,100275,2,high,wug,purple,exp,1
10,ym6cxam2f3,508,image-button-response,1098,5ee87dba82ed8101333c7744,pictureLabels,wug,FL,tobdepwugbim,100275,2,high,wug,purple,exp,1
10,e4s1gf870t,508,image-button-response,755,5f677b748c011837e12cba61,pictureLabels,dep,FL,tobdepwugbim,100275,2,high,wug,purple,exp,0
10,hc4uh4u04h,508,image-button-response,1251,5f5d6c3cbacc025bf0a03440,pictureLabels,wug,FL,tobdepwugbim,100275,2,high,wug,purple,exp,1
10,pmz1eqhg0u,508,image-button-response,2850,5f1bfe98441e2743f34fa16a,pictureLabels,wug,LF,tobdepwugbim,100275,2,high,wug,purple,exp,1
10,cjpw7y8c1k,508,image-button-response,747,5efdc12f5d69f622915a97a1,pictureLabels,wug,LF,tobdepwugbim,100275,2,high,wug,purple,exp,1
10,pbt3n7l1gj,508,image-button-response,2080,5f63d70e4e460f141abccbc1,pictureLabels,wug,FL,tobdepwugbim,100275,2,high,wug,purple,exp,1
10,wod6ma11s3,508,image-button-response,981,5f8228f40afba53534e6f583,pictureLabels,wug,FL,tobdepwugbim,100275,2,high,wug,purple,exp,1
10,8k7ujzqkju,508,image-button-response,1248,5e8b2e599abd417d9512a877,pictureLabels,tob,LF,tobdepwugbim,100275,2,high,wug,purple,exp,0
10,ffbjr4pqha,508,image-button-response,948,6009c27b9e9b700266fd52b5,pictureLabels,tob,FL,tobdepwugbim,100275,2,high,wug,purple,exp,0
10,5g2fbehb04,508,image-button-response,2726,591a1f4800a5650001276188,pictureLabels,wug,FL,tobdepwugbim,100275,2,high,wug,purple,exp,1
10,ufb4y7bj2f,508,image-button-response,838,5c2ce112f422870001fcab1f,pictureLabels,wug,FL,tobdepwugbim,100275,2,high,wug,purple,exp,1
10,qfloq0vkd1,508,image-button-response,1036,5acb896da3ba7a0001b4e99f,pictureLabels,wug,LF,tobdepwugbim,100275,2,high,wug,purple,exp,1
10,9q76krfydn,508,image-button-response,557,5f3d9a9f10a5f219cfe0b404,pictureLabels,dep,FL,tobdepwugbim,100275,2,high,wug,purple,exp,0
10,ker7u0dhxt,508,image-button-response,679,5c87d68fe5bc060001ee8498,pictureLabels,wug,FL,tobdepwugbim,100275,2,high,wug,purple,exp,1
10,j07stgzsr2,508,image-button-response,1501,5d77c0eb4a666c0019561a80,pictureLabels,wug,FL,tobdepwugbim,100275,2,high,wug,purple,exp,1
10,8706z1pc24,508,image-button-response,986,5c916456ec114b0016418dca,pictureLabels,wug,LF,tobdepwugbim,100275,2,high,wug,purple,exp,1
10,jlov66vr8s,508,image-button-response,1234,5fc65eb000091528ea745f65,pictureLabels,wug,FL,tobdepwugbim,100275,2,high,wug,purple,exp,1
10,t2ubvm70lv,508,image-button-response,920,5f858743256d25036d9fa693,pictureLabels,wug,LF,tobdepwugbim,100275,2,high,wug,purple,exp,1
10,ol68ft1h8h,508,image-button-response,2024,5e5e17c97593e912e086c640,pictureLabels,wug,FL,tobdepwugbim,100275,2,high,wug,purple,exp,1
10,o0xz7vf2yt,508,image-button-response,1135,5f2b196c0c610f4ec3eb5451,pictureLabels,wug,LF,tobdepwugbim,100275,2,high,wug,purple,exp,1
10,xekfnorue1,508,image-button-response,1843,5a11a7d0f2e3460001edbe35,pictureLabels,wug,FL,tobdepwugbim,100275,2,high,wug,purple,exp,1
10,71bdswcm9k,508,image-button-response,1481,5f591a5a9a49e211efead835,pictureLabels,wug,LF,tobdepwugbim,100275,2,high,wug,purple,exp,1
10,85gul0f7qh,508,image-button-response,945,5e4ab1b4ca765d000edebd15,pictureLabels,wug,LF,tobdepwugbim,100275,2,high,wug,purple,exp,1
10,fggxxfkvfo,508,image-button-response,1105,5fbfb86436a5de31c546f37b,pictureLabels,wug,LF,tobdepwugbim,100275,2,high,wug,purple,exp,1
10,aj9q5o0gf2,508,image-button-response,1293,5b01e69aa496b300013d5b9b,pictureLabels,wug,FL,tobdepwugbim,100275,2,high,wug,purple,exp,1
10,xu8vthdm2k,508,image-button-response,1073,5f85eb74d99dd00d735c107f,pictureLabels,wug,FL,tobdepwugbim,100275,2,high,wug,purple,exp,1
10,g8ez0w4wvj,508,image-button-response,583,5ec32348079dcc17451cac16,pictureLabels,wug,FL,tobdepwugbim,100275,2,high,wug,purple,exp,1
11,3a2waojqmg,510,image-button-response,1021,5e6a2c7c5b057b08e930e89d,pictureLabels,dep,FL,tobdepwugbim,110400,4,control,bim,lightblue,control,0
11,67zqwpqc3v,510,image-button-response,1208,5ea3066769713007dfc5f1c3,pictureLabels,dep,LF,tobdepwugbim,110400,4,control,bim,lightblue,control,0
11,3mctt6t3lt,510,image-button-response,1076,5b3cb17b6779080001fe88c1,pictureLabels,bim,FL,tobdepwugbim,110400,4,control,bim,lightblue,control,1
11,xekfnorue1,510,image-button-response,1201,5a11a7d0f2e3460001edbe35,pictureLabels,bim,FL,tobdepwugbim,110400,4,control,bim,lightblue,control,1
11,kfhtlqkth4,510,image-button-response,3025,5edf8803c008532459792282,pictureLabels,bim,FL,tobdepwugbim,110400,4,control,bim,lightblue,control,1
11,t8qovvqyjq,510,image-button-response,1024,5f89cbc45b38f5016101011c,pictureLabels,bim,FL,tobdepwugbim,110400,4,control,bim,lightblue,control,1
11,cjpw7y8c1k,510,image-button-response,1248,5efdc12f5d69f622915a97a1,pictureLabels,bim,LF,tobdepwugbim,110400,4,control,bim,lightblue,control,1
11,pusqm5jv5t,510,image-button-response,1148,5f477a85d919ec03cadfaddd,pictureLabels,bim,FL,tobdepwugbim,110400,4,control,bim,lightblue,control,1
11,e9dxj57s6l,510,image-button-response,1092,5eb58476f88d4008fa483809,pictureLabels,bim,FL,tobdepwugbim,110400,4,control,bim,lightblue,control,1
11,psp3bt1vuy,510,image-button-response,957,5933d3c4ed2e9a0001d37ab4,pictureLabels,bim,FL,tobdepwugbim,110400,4,control,bim,lightblue,control,1
11,o7w146d4yj,510,image-button-response,954,5f343de4d0c07630b7f90b92,pictureLabels,bim,LF,tobdepwugbim,110400,4,control,bim,lightblue,control,1
11,rl7z98kzoa,510,image-button-response,1193,5faa8121f8f5533a5c7f7a20,pictureLabels,bim,LF,tobdepwugbim,110400,4,control,bim,lightblue,control,1
11,ek1v85vere,510,image-button-response,1038,5bdcd99964215c0001282b34,pictureLabels,bim,LF,tobdepwugbim,110400,4,control,bim,lightblue,control,1
11,hcnkaylepg,510,image-button-response,2005,5ce8ebe9c9379d0019898681,pictureLabels,bim,FL,tobdepwugbim,110400,4,control,bim,lightblue,control,1
11,1gynr5ywqp,510,image-button-response,1417,5db1bba0e20f58000b8717f6,pictureLabels,bim,FL,tobdepwugbim,110400,4,control,bim,lightblue,control,1
11,yj9gmh2tyv,510,image-button-response,972,5e8dcc81e6686e035680594e,pictureLabels,bim,LF,tobdepwugbim,110400,4,control,bim,lightblue,control,1
11,y20qp8dcxo,510,image-button-response,2143,5f578563765fec223eb51594,pictureLabels,bim,LF,tobdepwugbim,110400,4,control,bim,lightblue,control,1
11,ker7u0dhxt,510,image-button-response,704,5c87d68fe5bc060001ee8498,pictureLabels,bim,FL,tobdepwugbim,110400,4,control,bim,lightblue,control,1
11,pmz1eqhg0u,510,image-button-response,2205,5f1bfe98441e2743f34fa16a,pictureLabels,dep,LF,tobdepwugbim,110400,4,control,bim,lightblue,control,0
11,ol68ft1h8h,510,image-button-response,1714,5e5e17c97593e912e086c640,pictureLabels,bim,FL,tobdepwugbim,110400,4,control,bim,lightblue,control,1
11,85gul0f7qh,510,image-button-response,1020,5e4ab1b4ca765d000edebd15,pictureLabels,bim,LF,tobdepwugbim,110400,4,control,bim,lightblue,control,1
11,pbt3n7l1gj,510,image-button-response,823,5f63d70e4e460f141abccbc1,pictureLabels,bim,FL,tobdepwugbim,110400,4,control,bim,lightblue,control,1
11,ffbjr4pqha,510,image-button-response,1078,6009c27b9e9b700266fd52b5,pictureLabels,bim,FL,tobdepwugbim,110400,4,control,bim,lightblue,control,1
11,4euvjgbfcc,510,image-button-response,2771,600355394a113e408f54cce5,pictureLabels,tob,LF,tobdepwugbim,110400,4,control,bim,lightblue,control,0
11,uyc3tp4v50,510,image-button-response,897,6017d6a23bdebea5e9062e9d,pictureLabels,bim,FL,tobdepwugbim,110400,4,control,bim,lightblue,control,1
11,ufb4y7bj2f,510,image-button-response,1030,5c2ce112f422870001fcab1f,pictureLabels,bim,FL,tobdepwugbim,110400,4,control,bim,lightblue,control,1
11,9q76krfydn,510,image-button-response,720,5f3d9a9f10a5f219cfe0b404,pictureLabels,bim,FL,tobdepwugbim,110400,4,control,bim,lightblue,control,1
11,mvqchu948c,510,image-button-response,2004,5b421b9ac2e3810001763252,pictureLabels,bim,FL,tobdepwugbim,110400,4,control,bim,lightblue,control,1
11,ym6cxam2f3,510,image-button-response,1072,5ee87dba82ed8101333c7744,pictureLabels,bim,FL,tobdepwugbim,110400,4,control,bim,lightblue,control,1
11,e4s1gf870t,510,image-button-response,864,5f677b748c011837e12cba61,pictureLabels,bim,FL,tobdepwugbim,110400,4,control,bim,lightblue,control,1
11,8706z1pc24,510,image-button-response,840,5c916456ec114b0016418dca,pictureLabels,bim,LF,tobdepwugbim,110400,4,control,bim,lightblue,control,1
11,jlov66vr8s,510,image-button-response,1014,5fc65eb000091528ea745f65,pictureLabels,bim,FL,tobdepwugbim,110400,4,control,bim,lightblue,control,1
11,t2ubvm70lv,510,image-button-response,2058,5f858743256d25036d9fa693,pictureLabels,bim,LF,tobdepwugbim,110400,4,control,bim,lightblue,control,1
11,aj9q5o0gf2,510,image-button-response,1919,5b01e69aa496b300013d5b9b,pictureLabels,bim,FL,tobdepwugbim,110400,4,control,bim,lightblue,control,1
11,w2brxm7ay2,510,image-button-response,818,5f60713e595007000a8e1da7,pictureLabels,bim,FL,tobdepwugbim,110400,4,control,bim,lightblue,control,1
11,wod6ma11s3,510,image-button-response,1302,5f8228f40afba53534e6f583,pictureLabels,bim,FL,tobdepwugbim,110400,4,control,bim,lightblue,control,1
11,8k7ujzqkju,510,image-button-response,1884,5e8b2e599abd417d9512a877,pictureLabels,dep,LF,tobdepwugbim,110400,4,control,bim,lightblue,control,0
11,q963ed16o4,510,image-button-response,1033,6006cf1238099707863fc7b4,pictureLabels,bim,FL,tobdepwugbim,110400,4,control,bim,lightblue,control,1
11,5g2fbehb04,510,image-button-response,NA,591a1f4800a5650001276188,pictureLabels,NA,FL,tobdepwugbim,110400,4,control,bim,lightblue,control,NA
11,1e9hhup9lf,510,image-button-response,796,5cbc680bfb8dfe0001839ba2,pictureLabels,tob,LF,tobdepwugbim,110400,4,control,bim,lightblue,control,0
11,qfloq0vkd1,510,image-button-response,1349,5acb896da3ba7a0001b4e99f,pictureLabels,bim,LF,tobdepwugbim,110400,4,control,bim,lightblue,control,1
11,163k2z1uov,510,image-button-response,947,5f11ccbc1a1a2c08b4a99efb,pictureLabels,bim,LF,tobdepwugbim,110400,4,control,bim,lightblue,control,1
11,o0xz7vf2yt,510,image-button-response,1103,5f2b196c0c610f4ec3eb5451,pictureLabels,bim,LF,tobdepwugbim,110400,4,control,bim,lightblue,control,1
11,fggxxfkvfo,510,image-button-response,1393,5fbfb86436a5de31c546f37b,pictureLabels,dep,LF,tobdepwugbim,110400,4,control,bim,lightblue,control,0
11,hc4uh4u04h,510,image-button-response,1195,5f5d6c3cbacc025bf0a03440,pictureLabels,bim,FL,tobdepwugbim,110400,4,control,bim,lightblue,control,1
11,g8ez0w4wvj,510,image-button-response,957,5ec32348079dcc17451cac16,pictureLabels,bim,FL,tobdepwugbim,110400,4,control,bim,lightblue,control,1
11,71bdswcm9k,510,image-button-response,964,5f591a5a9a49e211efead835,pictureLabels,bim,LF,tobdepwugbim,110400,4,control,bim,lightblue,control,1
11,j07stgzsr2,510,image-button-response,951,5d77c0eb4a666c0019561a80,pictureLabels,bim,FL,tobdepwugbim,110400,4,control,bim,lightblue,control,1
11,xu8vthdm2k,510,image-button-response,902,5f85eb74d99dd00d735c107f,pictureLabels,bim,FL,tobdepwugbim,110400,4,control,bim,lightblue,control,1
12,t8qovvqyjq,512,image-button-response,1287,5f89cbc45b38f5016101011c,pictureLabels,tob,FL,tobdepwugbim,120175,1,high,tob,red,exp,1
12,cjpw7y8c1k,512,image-button-response,1306,5efdc12f5d69f622915a97a1,pictureLabels,tob,LF,tobdepwugbim,120175,1,high,tob,red,exp,1
12,pmz1eqhg0u,512,image-button-response,1897,5f1bfe98441e2743f34fa16a,pictureLabels,tob,LF,tobdepwugbim,120175,1,high,tob,red,exp,1
12,3mctt6t3lt,512,image-button-response,1017,5b3cb17b6779080001fe88c1,pictureLabels,tob,FL,tobdepwugbim,120175,1,high,tob,red,exp,1
12,psp3bt1vuy,512,image-button-response,1101,5933d3c4ed2e9a0001d37ab4,pictureLabels,dep,FL,tobdepwugbim,120175,1,high,tob,red,exp,0
12,67zqwpqc3v,512,image-button-response,2235,5ea3066769713007dfc5f1c3,pictureLabels,tob,LF,tobdepwugbim,120175,1,high,tob,red,exp,1
12,3a2waojqmg,512,image-button-response,1192,5e6a2c7c5b057b08e930e89d,pictureLabels,tob,FL,tobdepwugbim,120175,1,high,tob,red,exp,1
12,xekfnorue1,512,image-button-response,1847,5a11a7d0f2e3460001edbe35,pictureLabels,dep,FL,tobdepwugbim,120175,1,high,tob,red,exp,0
12,9q76krfydn,512,image-button-response,737,5f3d9a9f10a5f219cfe0b404,pictureLabels,tob,FL,tobdepwugbim,120175,1,high,tob,red,exp,1
12,kfhtlqkth4,512,image-button-response,2377,5edf8803c008532459792282,pictureLabels,tob,FL,tobdepwugbim,120175,1,high,tob,red,exp,1
12,ol68ft1h8h,512,image-button-response,1528,5e5e17c97593e912e086c640,pictureLabels,tob,FL,tobdepwugbim,120175,1,high,tob,red,exp,1
12,hc4uh4u04h,512,image-button-response,1322,5f5d6c3cbacc025bf0a03440,pictureLabels,dep,FL,tobdepwugbim,120175,1,high,tob,red,exp,0
12,aj9q5o0gf2,512,image-button-response,2694,5b01e69aa496b300013d5b9b,pictureLabels,dep,FL,tobdepwugbim,120175,1,high,tob,red,exp,0
12,pusqm5jv5t,512,image-button-response,1834,5f477a85d919ec03cadfaddd,pictureLabels,dep,FL,tobdepwugbim,120175,1,high,tob,red,exp,0
12,4euvjgbfcc,512,image-button-response,2388,600355394a113e408f54cce5,pictureLabels,tob,LF,tobdepwugbim,120175,1,high,tob,red,exp,1
12,ek1v85vere,512,image-button-response,1165,5bdcd99964215c0001282b34,pictureLabels,tob,LF,tobdepwugbim,120175,1,high,tob,red,exp,1
12,e9dxj57s6l,512,image-button-response,1982,5eb58476f88d4008fa483809,pictureLabels,tob,FL,tobdepwugbim,120175,1,high,tob,red,exp,1
12,w2brxm7ay2,512,image-button-response,2511,5f60713e595007000a8e1da7,pictureLabels,dep,FL,tobdepwugbim,120175,1,high,tob,red,exp,0
12,qfloq0vkd1,512,image-button-response,1685,5acb896da3ba7a0001b4e99f,pictureLabels,tob,LF,tobdepwugbim,120175,1,high,tob,red,exp,1
12,163k2z1uov,512,image-button-response,1910,5f11ccbc1a1a2c08b4a99efb,pictureLabels,tob,LF,tobdepwugbim,120175,1,high,tob,red,exp,1
12,1gynr5ywqp,512,image-button-response,880,5db1bba0e20f58000b8717f6,pictureLabels,tob,FL,tobdepwugbim,120175,1,high,tob,red,exp,1
12,e4s1gf870t,512,image-button-response,1042,5f677b748c011837e12cba61,pictureLabels,tob,FL,tobdepwugbim,120175,1,high,tob,red,exp,1
12,ker7u0dhxt,512,image-button-response,1884,5c87d68fe5bc060001ee8498,pictureLabels,dep,FL,tobdepwugbim,120175,1,high,tob,red,exp,0
12,jlov66vr8s,512,image-button-response,993,5fc65eb000091528ea745f65,pictureLabels,tob,FL,tobdepwugbim,120175,1,high,tob,red,exp,1
12,8706z1pc24,512,image-button-response,985,5c916456ec114b0016418dca,pictureLabels,tob,LF,tobdepwugbim,120175,1,high,tob,red,exp,1
12,8k7ujzqkju,512,image-button-response,1274,5e8b2e599abd417d9512a877,pictureLabels,wug,LF,tobdepwugbim,120175,1,high,tob,red,exp,0
12,t2ubvm70lv,512,image-button-response,1003,5f858743256d25036d9fa693,pictureLabels,dep,LF,tobdepwugbim,120175,1,high,tob,red,exp,0
12,rl7z98kzoa,512,image-button-response,NA,5faa8121f8f5533a5c7f7a20,pictureLabels,NA,LF,tobdepwugbim,120175,1,high,tob,red,exp,NA
12,pbt3n7l1gj,512,image-button-response,2992,5f63d70e4e460f141abccbc1,pictureLabels,wug,FL,tobdepwugbim,120175,1,high,tob,red,exp,0
12,hcnkaylepg,512,image-button-response,1486,5ce8ebe9c9379d0019898681,pictureLabels,tob,FL,tobdepwugbim,120175,1,high,tob,red,exp,1
12,yj9gmh2tyv,512,image-button-response,2461,5e8dcc81e6686e035680594e,pictureLabels,tob,LF,tobdepwugbim,120175,1,high,tob,red,exp,1
12,uyc3tp4v50,512,image-button-response,1139,6017d6a23bdebea5e9062e9d,pictureLabels,dep,FL,tobdepwugbim,120175,1,high,tob,red,exp,0
12,o0xz7vf2yt,512,image-button-response,1399,5f2b196c0c610f4ec3eb5451,pictureLabels,tob,LF,tobdepwugbim,120175,1,high,tob,red,exp,1
12,fggxxfkvfo,512,image-button-response,1413,5fbfb86436a5de31c546f37b,pictureLabels,dep,LF,tobdepwugbim,120175,1,high,tob,red,exp,0
12,mvqchu948c,512,image-button-response,1499,5b421b9ac2e3810001763252,pictureLabels,dep,FL,tobdepwugbim,120175,1,high,tob,red,exp,0
12,xu8vthdm2k,512,image-button-response,2071,5f85eb74d99dd00d735c107f,pictureLabels,tob,FL,tobdepwugbim,120175,1,high,tob,red,exp,1
12,g8ez0w4wvj,512,image-button-response,701,5ec32348079dcc17451cac16,pictureLabels,tob,FL,tobdepwugbim,120175,1,high,tob,red,exp,1
12,y20qp8dcxo,512,image-button-response,1102,5f578563765fec223eb51594,pictureLabels,tob,LF,tobdepwugbim,120175,1,high,tob,red,exp,1
12,71bdswcm9k,512,image-button-response,1366,5f591a5a9a49e211efead835,pictureLabels,tob,LF,tobdepwugbim,120175,1,high,tob,red,exp,1
12,wod6ma11s3,512,image-button-response,1129,5f8228f40afba53534e6f583,pictureLabels,tob,FL,tobdepwugbim,120175,1,high,tob,red,exp,1
12,ffbjr4pqha,512,image-button-response,1639,6009c27b9e9b700266fd52b5,pictureLabels,wug,FL,tobdepwugbim,120175,1,high,tob,red,exp,0
12,5g2fbehb04,512,image-button-response,3028,591a1f4800a5650001276188,pictureLabels,wug,FL,tobdepwugbim,120175,1,high,tob,red,exp,0
12,j07stgzsr2,512,image-button-response,1236,5d77c0eb4a666c0019561a80,pictureLabels,tob,FL,tobdepwugbim,120175,1,high,tob,red,exp,1
12,1e9hhup9lf,512,image-button-response,976,5cbc680bfb8dfe0001839ba2,pictureLabels,wug,LF,tobdepwugbim,120175,1,high,tob,red,exp,0
12,q963ed16o4,512,image-button-response,1291,6006cf1238099707863fc7b4,pictureLabels,tob,FL,tobdepwugbim,120175,1,high,tob,red,exp,1
12,85gul0f7qh,512,image-button-response,1431,5e4ab1b4ca765d000edebd15,pictureLabels,tob,LF,tobdepwugbim,120175,1,high,tob,red,exp,1
12,ufb4y7bj2f,512,image-button-response,1019,5c2ce112f422870001fcab1f,pictureLabels,tob,FL,tobdepwugbim,120175,1,high,tob,red,exp,1
12,ym6cxam2f3,512,image-button-response,1259,5ee87dba82ed8101333c7744,pictureLabels,tob,FL,tobdepwugbim,120175,1,high,tob,red,exp,1
12,o7w146d4yj,512,image-button-response,1160,5f343de4d0c07630b7f90b92,pictureLabels,tob,LF,tobdepwugbim,120175,1,high,tob,red,exp,1
13,pmz1eqhg0u,514,image-button-response,2284,5f1bfe98441e2743f34fa16a,pictureLabels,wug,LF,tobdepwugbim,130375,3,high,dep,blue,exp,0
13,ol68ft1h8h,514,image-button-response,NA,5e5e17c97593e912e086c640,pictureLabels,NA,FL,tobdepwugbim,130375,3,high,dep,blue,exp,NA
13,163k2z1uov,514,image-button-response,905,5f11ccbc1a1a2c08b4a99efb,pictureLabels,dep,LF,tobdepwugbim,130375,3,high,dep,blue,exp,1
13,aj9q5o0gf2,514,image-button-response,3044,5b01e69aa496b300013d5b9b,pictureLabels,dep,FL,tobdepwugbim,130375,3,high,dep,blue,exp,1
13,cjpw7y8c1k,514,image-button-response,1142,5efdc12f5d69f622915a97a1,pictureLabels,dep,LF,tobdepwugbim,130375,3,high,dep,blue,exp,1
13,4euvjgbfcc,514,image-button-response,2194,600355394a113e408f54cce5,pictureLabels,dep,LF,tobdepwugbim,130375,3,high,dep,blue,exp,1
13,8706z1pc24,514,image-button-response,1040,5c916456ec114b0016418dca,pictureLabels,dep,LF,tobdepwugbim,130375,3,high,dep,blue,exp,1
13,xekfnorue1,514,image-button-response,1593,5a11a7d0f2e3460001edbe35,pictureLabels,tob,FL,tobdepwugbim,130375,3,high,dep,blue,exp,0
13,psp3bt1vuy,514,image-button-response,2050,5933d3c4ed2e9a0001d37ab4,pictureLabels,tob,FL,tobdepwugbim,130375,3,high,dep,blue,exp,0
13,pusqm5jv5t,514,image-button-response,1578,5f477a85d919ec03cadfaddd,pictureLabels,tob,FL,tobdepwugbim,130375,3,high,dep,blue,exp,0
13,rl7z98kzoa,514,image-button-response,1911,5faa8121f8f5533a5c7f7a20,pictureLabels,wug,LF,tobdepwugbim,130375,3,high,dep,blue,exp,0
13,o0xz7vf2yt,514,image-button-response,1499,5f2b196c0c610f4ec3eb5451,pictureLabels,dep,LF,tobdepwugbim,130375,3,high,dep,blue,exp,1
13,e4s1gf870t,514,image-button-response,2223,5f677b748c011837e12cba61,pictureLabels,wug,FL,tobdepwugbim,130375,3,high,dep,blue,exp,0
13,ker7u0dhxt,514,image-button-response,992,5c87d68fe5bc060001ee8498,pictureLabels,bim,FL,tobdepwugbim,130375,3,high,dep,blue,exp,0
13,kfhtlqkth4,514,image-button-response,3379,5edf8803c008532459792282,pictureLabels,wug,FL,tobdepwugbim,130375,3,high,dep,blue,exp,0
13,xu8vthdm2k,514,image-button-response,969,5f85eb74d99dd00d735c107f,pictureLabels,dep,FL,tobdepwugbim,130375,3,high,dep,blue,exp,1
13,g8ez0w4wvj,514,image-button-response,777,5ec32348079dcc17451cac16,pictureLabels,dep,FL,tobdepwugbim,130375,3,high,dep,blue,exp,1
13,hc4uh4u04h,514,image-button-response,2027,5f5d6c3cbacc025bf0a03440,pictureLabels,tob,FL,tobdepwugbim,130375,3,high,dep,blue,exp,0
13,t8qovvqyjq,514,image-button-response,1024,5f89cbc45b38f5016101011c,pictureLabels,dep,FL,tobdepwugbim,130375,3,high,dep,blue,exp,1
13,ffbjr4pqha,514,image-button-response,1043,6009c27b9e9b700266fd52b5,pictureLabels,dep,FL,tobdepwugbim,130375,3,high,dep,blue,exp,1
13,ek1v85vere,514,image-button-response,3131,5bdcd99964215c0001282b34,pictureLabels,dep,LF,tobdepwugbim,130375,3,high,dep,blue,exp,1
13,w2brxm7ay2,514,image-button-response,2226,5f60713e595007000a8e1da7,pictureLabels,tob,FL,tobdepwugbim,130375,3,high,dep,blue,exp,0
13,q963ed16o4,514,image-button-response,1085,6006cf1238099707863fc7b4,pictureLabels,dep,FL,tobdepwugbim,130375,3,high,dep,blue,exp,1
13,9q76krfydn,514,image-button-response,725,5f3d9a9f10a5f219cfe0b404,pictureLabels,wug,FL,tobdepwugbim,130375,3,high,dep,blue,exp,0
13,qfloq0vkd1,514,image-button-response,1116,5acb896da3ba7a0001b4e99f,pictureLabels,dep,LF,tobdepwugbim,130375,3,high,dep,blue,exp,1
13,hcnkaylepg,514,image-button-response,1405,5ce8ebe9c9379d0019898681,pictureLabels,dep,FL,tobdepwugbim,130375,3,high,dep,blue,exp,1
13,ym6cxam2f3,514,image-button-response,1092,5ee87dba82ed8101333c7744,pictureLabels,dep,FL,tobdepwugbim,130375,3,high,dep,blue,exp,1
13,jlov66vr8s,514,image-button-response,1707,5fc65eb000091528ea745f65,pictureLabels,dep,FL,tobdepwugbim,130375,3,high,dep,blue,exp,1
13,e9dxj57s6l,514,image-button-response,1844,5eb58476f88d4008fa483809,pictureLabels,dep,FL,tobdepwugbim,130375,3,high,dep,blue,exp,1
13,3mctt6t3lt,514,image-button-response,2159,5b3cb17b6779080001fe88c1,pictureLabels,dep,FL,tobdepwugbim,130375,3,high,dep,blue,exp,1
13,t2ubvm70lv,514,image-button-response,2524,5f858743256d25036d9fa693,pictureLabels,wug,LF,tobdepwugbim,130375,3,high,dep,blue,exp,0
13,fggxxfkvfo,514,image-button-response,3182,5fbfb86436a5de31c546f37b,pictureLabels,wug,LF,tobdepwugbim,130375,3,high,dep,blue,exp,0
13,1gynr5ywqp,514,image-button-response,1478,5db1bba0e20f58000b8717f6,pictureLabels,dep,FL,tobdepwugbim,130375,3,high,dep,blue,exp,1
13,3a2waojqmg,514,image-button-response,1233,5e6a2c7c5b057b08e930e89d,pictureLabels,bim,FL,tobdepwugbim,130375,3,high,dep,blue,exp,0
13,yj9gmh2tyv,514,image-button-response,1320,5e8dcc81e6686e035680594e,pictureLabels,dep,LF,tobdepwugbim,130375,3,high,dep,blue,exp,1
13,o7w146d4yj,514,image-button-response,1305,5f343de4d0c07630b7f90b92,pictureLabels,dep,LF,tobdepwugbim,130375,3,high,dep,blue,exp,1
13,5g2fbehb04,514,image-button-response,2170,591a1f4800a5650001276188,pictureLabels,dep,FL,tobdepwugbim,130375,3,high,dep,blue,exp,1
13,1e9hhup9lf,514,image-button-response,1726,5cbc680bfb8dfe0001839ba2,pictureLabels,dep,LF,tobdepwugbim,130375,3,high,dep,blue,exp,1
13,71bdswcm9k,514,image-button-response,999,5f591a5a9a49e211efead835,pictureLabels,dep,LF,tobdepwugbim,130375,3,high,dep,blue,exp,1
13,y20qp8dcxo,514,image-button-response,2055,5f578563765fec223eb51594,pictureLabels,dep,LF,tobdepwugbim,130375,3,high,dep,blue,exp,1
13,67zqwpqc3v,514,image-button-response,1792,5ea3066769713007dfc5f1c3,pictureLabels,wug,LF,tobdepwugbim,130375,3,high,dep,blue,exp,0
13,85gul0f7qh,514,image-button-response,1163,5e4ab1b4ca765d000edebd15,pictureLabels,dep,LF,tobdepwugbim,130375,3,high,dep,blue,exp,1
13,8k7ujzqkju,514,image-button-response,970,5e8b2e599abd417d9512a877,pictureLabels,wug,LF,tobdepwugbim,130375,3,high,dep,blue,exp,0
13,j07stgzsr2,514,image-button-response,1208,5d77c0eb4a666c0019561a80,pictureLabels,dep,FL,tobdepwugbim,130375,3,high,dep,blue,exp,1
13,mvqchu948c,514,image-button-response,1592,5b421b9ac2e3810001763252,pictureLabels,tob,FL,tobdepwugbim,130375,3,high,dep,blue,exp,0
13,uyc3tp4v50,514,image-button-response,924,6017d6a23bdebea5e9062e9d,pictureLabels,tob,FL,tobdepwugbim,130375,3,high,dep,blue,exp,0
13,pbt3n7l1gj,514,image-button-response,972,5f63d70e4e460f141abccbc1,pictureLabels,dep,FL,tobdepwugbim,130375,3,high,dep,blue,exp,1
13,wod6ma11s3,514,image-button-response,1099,5f8228f40afba53534e6f583,pictureLabels,dep,FL,tobdepwugbim,130375,3,high,dep,blue,exp,1
13,ufb4y7bj2f,514,image-button-response,1080,5c2ce112f422870001fcab1f,pictureLabels,dep,FL,tobdepwugbim,130375,3,high,dep,blue,exp,1
14,jlov66vr8s,516,image-button-response,961,5fc65eb000091528ea745f65,pictureLabels,bim,FL,tobdepwugbim,140400,4,control,bim,lightblue,control,1
14,cjpw7y8c1k,516,image-button-response,1235,5efdc12f5d69f622915a97a1,pictureLabels,bim,LF,tobdepwugbim,140400,4,control,bim,lightblue,control,1
14,w2brxm7ay2,516,image-button-response,971,5f60713e595007000a8e1da7,pictureLabels,bim,FL,tobdepwugbim,140400,4,control,bim,lightblue,control,1
14,kfhtlqkth4,516,image-button-response,2799,5edf8803c008532459792282,pictureLabels,bim,FL,tobdepwugbim,140400,4,control,bim,lightblue,control,1
14,9q76krfydn,516,image-button-response,1128,5f3d9a9f10a5f219cfe0b404,pictureLabels,bim,FL,tobdepwugbim,140400,4,control,bim,lightblue,control,1
14,ym6cxam2f3,516,image-button-response,1063,5ee87dba82ed8101333c7744,pictureLabels,bim,FL,tobdepwugbim,140400,4,control,bim,lightblue,control,1
14,xu8vthdm2k,516,image-button-response,1210,5f85eb74d99dd00d735c107f,pictureLabels,bim,FL,tobdepwugbim,140400,4,control,bim,lightblue,control,1
14,psp3bt1vuy,516,image-button-response,948,5933d3c4ed2e9a0001d37ab4,pictureLabels,bim,FL,tobdepwugbim,140400,4,control,bim,lightblue,control,1
14,ker7u0dhxt,516,image-button-response,745,5c87d68fe5bc060001ee8498,pictureLabels,bim,FL,tobdepwugbim,140400,4,control,bim,lightblue,control,1
14,5g2fbehb04,516,image-button-response,3263,591a1f4800a5650001276188,pictureLabels,bim,FL,tobdepwugbim,140400,4,control,bim,lightblue,control,1
14,4euvjgbfcc,516,image-button-response,2426,600355394a113e408f54cce5,pictureLabels,tob,LF,tobdepwugbim,140400,4,control,bim,lightblue,control,0
14,pmz1eqhg0u,516,image-button-response,3018,5f1bfe98441e2743f34fa16a,pictureLabels,wug,LF,tobdepwugbim,140400,4,control,bim,lightblue,control,0
14,aj9q5o0gf2,516,image-button-response,1978,5b01e69aa496b300013d5b9b,pictureLabels,bim,FL,tobdepwugbim,140400,4,control,bim,lightblue,control,1
14,xekfnorue1,516,image-button-response,1223,5a11a7d0f2e3460001edbe35,pictureLabels,bim,FL,tobdepwugbim,140400,4,control,bim,lightblue,control,1
14,yj9gmh2tyv,516,image-button-response,940,5e8dcc81e6686e035680594e,pictureLabels,bim,LF,tobdepwugbim,140400,4,control,bim,lightblue,control,1
14,qfloq0vkd1,516,image-button-response,949,5acb896da3ba7a0001b4e99f,pictureLabels,bim,LF,tobdepwugbim,140400,4,control,bim,lightblue,control,1
14,hc4uh4u04h,516,image-button-response,1867,5f5d6c3cbacc025bf0a03440,pictureLabels,bim,FL,tobdepwugbim,140400,4,control,bim,lightblue,control,1
14,e4s1gf870t,516,image-button-response,732,5f677b748c011837e12cba61,pictureLabels,bim,FL,tobdepwugbim,140400,4,control,bim,lightblue,control,1
14,y20qp8dcxo,516,image-button-response,1513,5f578563765fec223eb51594,pictureLabels,bim,LF,tobdepwugbim,140400,4,control,bim,lightblue,control,1
14,1gynr5ywqp,516,image-button-response,1075,5db1bba0e20f58000b8717f6,pictureLabels,bim,FL,tobdepwugbim,140400,4,control,bim,lightblue,control,1
14,8706z1pc24,516,image-button-response,1223,5c916456ec114b0016418dca,pictureLabels,bim,LF,tobdepwugbim,140400,4,control,bim,lightblue,control,1
14,ol68ft1h8h,516,image-button-response,1323,5e5e17c97593e912e086c640,pictureLabels,bim,FL,tobdepwugbim,140400,4,control,bim,lightblue,control,1
14,t8qovvqyjq,516,image-button-response,1088,5f89cbc45b38f5016101011c,pictureLabels,bim,FL,tobdepwugbim,140400,4,control,bim,lightblue,control,1
14,pusqm5jv5t,516,image-button-response,928,5f477a85d919ec03cadfaddd,pictureLabels,bim,FL,tobdepwugbim,140400,4,control,bim,lightblue,control,1
14,ek1v85vere,516,image-button-response,843,5bdcd99964215c0001282b34,pictureLabels,bim,LF,tobdepwugbim,140400,4,control,bim,lightblue,control,1
14,pbt3n7l1gj,516,image-button-response,920,5f63d70e4e460f141abccbc1,pictureLabels,bim,FL,tobdepwugbim,140400,4,control,bim,lightblue,control,1
14,hcnkaylepg,516,image-button-response,1676,5ce8ebe9c9379d0019898681,pictureLabels,bim,FL,tobdepwugbim,140400,4,control,bim,lightblue,control,1
14,wod6ma11s3,516,image-button-response,1393,5f8228f40afba53534e6f583,pictureLabels,bim,FL,tobdepwugbim,140400,4,control,bim,lightblue,control,1
14,q963ed16o4,516,image-button-response,1106,6006cf1238099707863fc7b4,pictureLabels,bim,FL,tobdepwugbim,140400,4,control,bim,lightblue,control,1
14,163k2z1uov,516,image-button-response,1115,5f11ccbc1a1a2c08b4a99efb,pictureLabels,bim,LF,tobdepwugbim,140400,4,control,bim,lightblue,control,1
14,j07stgzsr2,516,image-button-response,938,5d77c0eb4a666c0019561a80,pictureLabels,bim,FL,tobdepwugbim,140400,4,control,bim,lightblue,control,1
14,mvqchu948c,516,image-button-response,2355,5b421b9ac2e3810001763252,pictureLabels,bim,FL,tobdepwugbim,140400,4,control,bim,lightblue,control,1
14,1e9hhup9lf,516,image-button-response,721,5cbc680bfb8dfe0001839ba2,pictureLabels,tob,LF,tobdepwugbim,140400,4,control,bim,lightblue,control,0
14,g8ez0w4wvj,516,image-button-response,710,5ec32348079dcc17451cac16,pictureLabels,bim,FL,tobdepwugbim,140400,4,control,bim,lightblue,control,1
14,3mctt6t3lt,516,image-button-response,862,5b3cb17b6779080001fe88c1,pictureLabels,bim,FL,tobdepwugbim,140400,4,control,bim,lightblue,control,1
14,8k7ujzqkju,516,image-button-response,NA,5e8b2e599abd417d9512a877,pictureLabels,NA,LF,tobdepwugbim,140400,4,control,bim,lightblue,control,NA
14,t2ubvm70lv,516,image-button-response,3270,5f858743256d25036d9fa693,pictureLabels,bim,LF,tobdepwugbim,140400,4,control,bim,lightblue,control,1
14,rl7z98kzoa,516,image-button-response,1028,5faa8121f8f5533a5c7f7a20,pictureLabels,bim,LF,tobdepwugbim,140400,4,control,bim,lightblue,control,1
14,o0xz7vf2yt,516,image-button-response,1253,5f2b196c0c610f4ec3eb5451,pictureLabels,bim,LF,tobdepwugbim,140400,4,control,bim,lightblue,control,1
14,71bdswcm9k,516,image-button-response,965,5f591a5a9a49e211efead835,pictureLabels,bim,LF,tobdepwugbim,140400,4,control,bim,lightblue,control,1
14,uyc3tp4v50,516,image-button-response,1069,6017d6a23bdebea5e9062e9d,pictureLabels,bim,FL,tobdepwugbim,140400,4,control,bim,lightblue,control,1
14,o7w146d4yj,516,image-button-response,1035,5f343de4d0c07630b7f90b92,pictureLabels,bim,LF,tobdepwugbim,140400,4,control,bim,lightblue,control,1
14,fggxxfkvfo,516,image-button-response,2589,5fbfb86436a5de31c546f37b,pictureLabels,wug,LF,tobdepwugbim,140400,4,control,bim,lightblue,control,0
14,ffbjr4pqha,516,image-button-response,915,6009c27b9e9b700266fd52b5,pictureLabels,bim,FL,tobdepwugbim,140400,4,control,bim,lightblue,control,1
14,e9dxj57s6l,516,image-button-response,955,5eb58476f88d4008fa483809,pictureLabels,bim,FL,tobdepwugbim,140400,4,control,bim,lightblue,control,1
14,67zqwpqc3v,516,image-button-response,1347,5ea3066769713007dfc5f1c3,pictureLabels,dep,LF,tobdepwugbim,140400,4,control,bim,lightblue,control,0
14,85gul0f7qh,516,image-button-response,1028,5e4ab1b4ca765d000edebd15,pictureLabels,bim,LF,tobdepwugbim,140400,4,control,bim,lightblue,control,1
14,ufb4y7bj2f,516,image-button-response,1093,5c2ce112f422870001fcab1f,pictureLabels,bim,FL,tobdepwugbim,140400,4,control,bim,lightblue,control,1
14,3a2waojqmg,516,image-button-response,2166,5e6a2c7c5b057b08e930e89d,pictureLabels,dep,FL,tobdepwugbim,140400,4,control,bim,lightblue,control,0
15,xekfnorue1,518,image-button-response,2515,5a11a7d0f2e3460001edbe35,pictureLabels,wug,FL,tobdepwugbim,150125,1,low,tob,purple,exp,0
15,cjpw7y8c1k,518,image-button-response,882,5efdc12f5d69f622915a97a1,pictureLabels,wug,LF,tobdepwugbim,150125,1,low,tob,purple,exp,0
15,ol68ft1h8h,518,image-button-response,1166,5e5e17c97593e912e086c640,pictureLabels,wug,FL,tobdepwugbim,150125,1,low,tob,purple,exp,0
15,163k2z1uov,518,image-button-response,1459,5f11ccbc1a1a2c08b4a99efb,pictureLabels,wug,LF,tobdepwugbim,150125,1,low,tob,purple,exp,0
15,ker7u0dhxt,518,image-button-response,862,5c87d68fe5bc060001ee8498,pictureLabels,wug,FL,tobdepwugbim,150125,1,low,tob,purple,exp,0
15,jlov66vr8s,518,image-button-response,2322,5fc65eb000091528ea745f65,pictureLabels,wug,FL,tobdepwugbim,150125,1,low,tob,purple,exp,0
15,kfhtlqkth4,518,image-button-response,2033,5edf8803c008532459792282,pictureLabels,dep,FL,tobdepwugbim,150125,1,low,tob,purple,exp,0
15,g8ez0w4wvj,518,image-button-response,618,5ec32348079dcc17451cac16,pictureLabels,wug,FL,tobdepwugbim,150125,1,low,tob,purple,exp,0
15,pmz1eqhg0u,518,image-button-response,NA,5f1bfe98441e2743f34fa16a,pictureLabels,NA,LF,tobdepwugbim,150125,1,low,tob,purple,exp,NA
15,e4s1gf870t,518,image-button-response,1877,5f677b748c011837e12cba61,pictureLabels,dep,FL,tobdepwugbim,150125,1,low,tob,purple,exp,0
15,ym6cxam2f3,518,image-button-response,768,5ee87dba82ed8101333c7744,pictureLabels,wug,FL,tobdepwugbim,150125,1,low,tob,purple,exp,0
15,4euvjgbfcc,518,image-button-response,1074,600355394a113e408f54cce5,pictureLabels,wug,LF,tobdepwugbim,150125,1,low,tob,purple,exp,0
15,ek1v85vere,518,image-button-response,1085,5bdcd99964215c0001282b34,pictureLabels,wug,LF,tobdepwugbim,150125,1,low,tob,purple,exp,0
15,aj9q5o0gf2,518,image-button-response,2615,5b01e69aa496b300013d5b9b,pictureLabels,tob,FL,tobdepwugbim,150125,1,low,tob,purple,exp,1
15,hc4uh4u04h,518,image-button-response,1147,5f5d6c3cbacc025bf0a03440,pictureLabels,bim,FL,tobdepwugbim,150125,1,low,tob,purple,exp,0
15,8706z1pc24,518,image-button-response,750,5c916456ec114b0016418dca,pictureLabels,wug,LF,tobdepwugbim,150125,1,low,tob,purple,exp,0
15,o0xz7vf2yt,518,image-button-response,2263,5f2b196c0c610f4ec3eb5451,pictureLabels,tob,LF,tobdepwugbim,150125,1,low,tob,purple,exp,1
15,3mctt6t3lt,518,image-button-response,1059,5b3cb17b6779080001fe88c1,pictureLabels,wug,FL,tobdepwugbim,150125,1,low,tob,purple,exp,0
15,w2brxm7ay2,518,image-button-response,2267,5f60713e595007000a8e1da7,pictureLabels,wug,FL,tobdepwugbim,150125,1,low,tob,purple,exp,0
15,psp3bt1vuy,518,image-button-response,989,5933d3c4ed2e9a0001d37ab4,pictureLabels,wug,FL,tobdepwugbim,150125,1,low,tob,purple,exp,0
15,rl7z98kzoa,518,image-button-response,2705,5faa8121f8f5533a5c7f7a20,pictureLabels,wug,LF,tobdepwugbim,150125,1,low,tob,purple,exp,0
15,qfloq0vkd1,518,image-button-response,1966,5acb896da3ba7a0001b4e99f,pictureLabels,tob,LF,tobdepwugbim,150125,1,low,tob,purple,exp,1
15,hcnkaylepg,518,image-button-response,1658,5ce8ebe9c9379d0019898681,pictureLabels,tob,FL,tobdepwugbim,150125,1,low,tob,purple,exp,1
15,y20qp8dcxo,518,image-button-response,1544,5f578563765fec223eb51594,pictureLabels,tob,LF,tobdepwugbim,150125,1,low,tob,purple,exp,1
15,xu8vthdm2k,518,image-button-response,1174,5f85eb74d99dd00d735c107f,pictureLabels,wug,FL,tobdepwugbim,150125,1,low,tob,purple,exp,0
15,ffbjr4pqha,518,image-button-response,1186,6009c27b9e9b700266fd52b5,pictureLabels,tob,FL,tobdepwugbim,150125,1,low,tob,purple,exp,1
15,j07stgzsr2,518,image-button-response,1159,5d77c0eb4a666c0019561a80,pictureLabels,wug,FL,tobdepwugbim,150125,1,low,tob,purple,exp,0
15,t2ubvm70lv,518,image-button-response,1063,5f858743256d25036d9fa693,pictureLabels,wug,LF,tobdepwugbim,150125,1,low,tob,purple,exp,0
15,pusqm5jv5t,518,image-button-response,842,5f477a85d919ec03cadfaddd,pictureLabels,wug,FL,tobdepwugbim,150125,1,low,tob,purple,exp,0
15,9q76krfydn,518,image-button-response,555,5f3d9a9f10a5f219cfe0b404,pictureLabels,dep,FL,tobdepwugbim,150125,1,low,tob,purple,exp,0
15,8k7ujzqkju,518,image-button-response,3367,5e8b2e599abd417d9512a877,pictureLabels,tob,LF,tobdepwugbim,150125,1,low,tob,purple,exp,1
15,yj9gmh2tyv,518,image-button-response,2350,5e8dcc81e6686e035680594e,pictureLabels,tob,LF,tobdepwugbim,150125,1,low,tob,purple,exp,1
15,mvqchu948c,518,image-button-response,1452,5b421b9ac2e3810001763252,pictureLabels,wug,FL,tobdepwugbim,150125,1,low,tob,purple,exp,0
15,1gynr5ywqp,518,image-button-response,950,5db1bba0e20f58000b8717f6,pictureLabels,wug,FL,tobdepwugbim,150125,1,low,tob,purple,exp,0
15,67zqwpqc3v,518,image-button-response,1285,5ea3066769713007dfc5f1c3,pictureLabels,wug,LF,tobdepwugbim,150125,1,low,tob,purple,exp,0
15,71bdswcm9k,518,image-button-response,1264,5f591a5a9a49e211efead835,pictureLabels,wug,LF,tobdepwugbim,150125,1,low,tob,purple,exp,0
15,5g2fbehb04,518,image-button-response,NA,591a1f4800a5650001276188,pictureLabels,NA,FL,tobdepwugbim,150125,1,low,tob,purple,exp,NA
15,fggxxfkvfo,518,image-button-response,3279,5fbfb86436a5de31c546f37b,pictureLabels,dep,LF,tobdepwugbim,150125,1,low,tob,purple,exp,0
15,e9dxj57s6l,518,image-button-response,2697,5eb58476f88d4008fa483809,pictureLabels,tob,FL,tobdepwugbim,150125,1,low,tob,purple,exp,1
15,3a2waojqmg,518,image-button-response,1312,5e6a2c7c5b057b08e930e89d,pictureLabels,wug,FL,tobdepwugbim,150125,1,low,tob,purple,exp,0
15,pbt3n7l1gj,518,image-button-response,1587,5f63d70e4e460f141abccbc1,pictureLabels,tob,FL,tobdepwugbim,150125,1,low,tob,purple,exp,1
15,q963ed16o4,518,image-button-response,1054,6006cf1238099707863fc7b4,pictureLabels,wug,FL,tobdepwugbim,150125,1,low,tob,purple,exp,0
15,1e9hhup9lf,518,image-button-response,1430,5cbc680bfb8dfe0001839ba2,pictureLabels,bim,LF,tobdepwugbim,150125,1,low,tob,purple,exp,0
15,85gul0f7qh,518,image-button-response,1073,5e4ab1b4ca765d000edebd15,pictureLabels,wug,LF,tobdepwugbim,150125,1,low,tob,purple,exp,0
15,ufb4y7bj2f,518,image-button-response,1085,5c2ce112f422870001fcab1f,pictureLabels,wug,FL,tobdepwugbim,150125,1,low,tob,purple,exp,0
15,uyc3tp4v50,518,image-button-response,912,6017d6a23bdebea5e9062e9d,pictureLabels,wug,FL,tobdepwugbim,150125,1,low,tob,purple,exp,0
15,o7w146d4yj,518,image-button-response,976,5f343de4d0c07630b7f90b92,pictureLabels,wug,LF,tobdepwugbim,150125,1,low,tob,purple,exp,0
15,t8qovvqyjq,518,image-button-response,1207,5f89cbc45b38f5016101011c,pictureLabels,tob,FL,tobdepwugbim,150125,1,low,tob,purple,exp,1
15,wod6ma11s3,518,image-button-response,1831,5f8228f40afba53534e6f583,pictureLabels,wug,FL,tobdepwugbim,150125,1,low,tob,purple,exp,0
16,cjpw7y8c1k,520,image-button-response,1387,5efdc12f5d69f622915a97a1,pictureLabels,tob,LF,tobdepwugbim,160325,3,low,dep,red,exp,0
16,kfhtlqkth4,520,image-button-response,2389,5edf8803c008532459792282,pictureLabels,tob,FL,tobdepwugbim,160325,3,low,dep,red,exp,0
16,4euvjgbfcc,520,image-button-response,1972,600355394a113e408f54cce5,pictureLabels,tob,LF,tobdepwugbim,160325,3,low,dep,red,exp,0
16,jlov66vr8s,520,image-button-response,2208,5fc65eb000091528ea745f65,pictureLabels,tob,FL,tobdepwugbim,160325,3,low,dep,red,exp,0
16,ker7u0dhxt,520,image-button-response,1769,5c87d68fe5bc060001ee8498,pictureLabels,tob,FL,tobdepwugbim,160325,3,low,dep,red,exp,0
16,xu8vthdm2k,520,image-button-response,2235,5f85eb74d99dd00d735c107f,pictureLabels,tob,FL,tobdepwugbim,160325,3,low,dep,red,exp,0
16,9q76krfydn,520,image-button-response,809,5f3d9a9f10a5f219cfe0b404,pictureLabels,tob,FL,tobdepwugbim,160325,3,low,dep,red,exp,0
16,pusqm5jv5t,520,image-button-response,2256,5f477a85d919ec03cadfaddd,pictureLabels,tob,FL,tobdepwugbim,160325,3,low,dep,red,exp,0
16,pmz1eqhg0u,520,image-button-response,2545,5f1bfe98441e2743f34fa16a,pictureLabels,tob,LF,tobdepwugbim,160325,3,low,dep,red,exp,0
16,psp3bt1vuy,520,image-button-response,1341,5933d3c4ed2e9a0001d37ab4,pictureLabels,dep,FL,tobdepwugbim,160325,3,low,dep,red,exp,1
16,ym6cxam2f3,520,image-button-response,1139,5ee87dba82ed8101333c7744,pictureLabels,tob,FL,tobdepwugbim,160325,3,low,dep,red,exp,0
16,w2brxm7ay2,520,image-button-response,2655,5f60713e595007000a8e1da7,pictureLabels,tob,FL,tobdepwugbim,160325,3,low,dep,red,exp,0
16,qfloq0vkd1,520,image-button-response,1229,5acb896da3ba7a0001b4e99f,pictureLabels,wug,LF,tobdepwugbim,160325,3,low,dep,red,exp,0
16,ol68ft1h8h,520,image-button-response,3084,5e5e17c97593e912e086c640,pictureLabels,dep,FL,tobdepwugbim,160325,3,low,dep,red,exp,1
16,hc4uh4u04h,520,image-button-response,1419,5f5d6c3cbacc025bf0a03440,pictureLabels,tob,FL,tobdepwugbim,160325,3,low,dep,red,exp,0
16,y20qp8dcxo,520,image-button-response,3235,5f578563765fec223eb51594,pictureLabels,dep,LF,tobdepwugbim,160325,3,low,dep,red,exp,1
16,g8ez0w4wvj,520,image-button-response,817,5ec32348079dcc17451cac16,pictureLabels,tob,FL,tobdepwugbim,160325,3,low,dep,red,exp,0
16,163k2z1uov,520,image-button-response,1375,5f11ccbc1a1a2c08b4a99efb,pictureLabels,dep,LF,tobdepwugbim,160325,3,low,dep,red,exp,1
16,e4s1gf870t,520,image-button-response,784,5f677b748c011837e12cba61,pictureLabels,tob,FL,tobdepwugbim,160325,3,low,dep,red,exp,0
16,t2ubvm70lv,520,image-button-response,3355,5f858743256d25036d9fa693,pictureLabels,dep,LF,tobdepwugbim,160325,3,low,dep,red,exp,1
16,fggxxfkvfo,520,image-button-response,1600,5fbfb86436a5de31c546f37b,pictureLabels,tob,LF,tobdepwugbim,160325,3,low,dep,red,exp,0
16,8706z1pc24,520,image-button-response,1650,5c916456ec114b0016418dca,pictureLabels,tob,LF,tobdepwugbim,160325,3,low,dep,red,exp,0
16,aj9q5o0gf2,520,image-button-response,2398,5b01e69aa496b300013d5b9b,pictureLabels,dep,FL,tobdepwugbim,160325,3,low,dep,red,exp,1
16,xekfnorue1,520,image-button-response,1351,5a11a7d0f2e3460001edbe35,pictureLabels,dep,FL,tobdepwugbim,160325,3,low,dep,red,exp,1
16,yj9gmh2tyv,520,image-button-response,2771,5e8dcc81e6686e035680594e,pictureLabels,tob,LF,tobdepwugbim,160325,3,low,dep,red,exp,0
16,q963ed16o4,520,image-button-response,1147,6006cf1238099707863fc7b4,pictureLabels,tob,FL,tobdepwugbim,160325,3,low,dep,red,exp,0
16,o0xz7vf2yt,520,image-button-response,2533,5f2b196c0c610f4ec3eb5451,pictureLabels,tob,LF,tobdepwugbim,160325,3,low,dep,red,exp,0
16,hcnkaylepg,520,image-button-response,1544,5ce8ebe9c9379d0019898681,pictureLabels,tob,FL,tobdepwugbim,160325,3,low,dep,red,exp,0
16,mvqchu948c,520,image-button-response,1498,5b421b9ac2e3810001763252,pictureLabels,dep,FL,tobdepwugbim,160325,3,low,dep,red,exp,1
16,1gynr5ywqp,520,image-button-response,679,5db1bba0e20f58000b8717f6,pictureLabels,wug,FL,tobdepwugbim,160325,3,low,dep,red,exp,0
16,j07stgzsr2,520,image-button-response,1318,5d77c0eb4a666c0019561a80,pictureLabels,tob,FL,tobdepwugbim,160325,3,low,dep,red,exp,0
16,5g2fbehb04,520,image-button-response,NA,591a1f4800a5650001276188,pictureLabels,NA,FL,tobdepwugbim,160325,3,low,dep,red,exp,NA
16,pbt3n7l1gj,520,image-button-response,2509,5f63d70e4e460f141abccbc1,pictureLabels,wug,FL,tobdepwugbim,160325,3,low,dep,red,exp,0
16,85gul0f7qh,520,image-button-response,1797,5e4ab1b4ca765d000edebd15,pictureLabels,tob,LF,tobdepwugbim,160325,3,low,dep,red,exp,0
16,ek1v85vere,520,image-button-response,1625,5bdcd99964215c0001282b34,pictureLabels,tob,LF,tobdepwugbim,160325,3,low,dep,red,exp,0
16,ffbjr4pqha,520,image-button-response,630,6009c27b9e9b700266fd52b5,pictureLabels,wug,FL,tobdepwugbim,160325,3,low,dep,red,exp,0
16,71bdswcm9k,520,image-button-response,1691,5f591a5a9a49e211efead835,pictureLabels,tob,LF,tobdepwugbim,160325,3,low,dep,red,exp,0
16,t8qovvqyjq,520,image-button-response,1535,5f89cbc45b38f5016101011c,pictureLabels,dep,FL,tobdepwugbim,160325,3,low,dep,red,exp,1
16,o7w146d4yj,520,image-button-response,1526,5f343de4d0c07630b7f90b92,pictureLabels,tob,LF,tobdepwugbim,160325,3,low,dep,red,exp,0
16,ufb4y7bj2f,520,image-button-response,1130,5c2ce112f422870001fcab1f,pictureLabels,tob,FL,tobdepwugbim,160325,3,low,dep,red,exp,0
16,3mctt6t3lt,520,image-button-response,2017,5b3cb17b6779080001fe88c1,pictureLabels,dep,FL,tobdepwugbim,160325,3,low,dep,red,exp,1
16,uyc3tp4v50,520,image-button-response,1049,6017d6a23bdebea5e9062e9d,pictureLabels,dep,FL,tobdepwugbim,160325,3,low,dep,red,exp,1
16,1e9hhup9lf,520,image-button-response,1508,5cbc680bfb8dfe0001839ba2,pictureLabels,wug,LF,tobdepwugbim,160325,3,low,dep,red,exp,0
16,rl7z98kzoa,520,image-button-response,1250,5faa8121f8f5533a5c7f7a20,pictureLabels,dep,LF,tobdepwugbim,160325,3,low,dep,red,exp,1
16,e9dxj57s6l,520,image-button-response,NA,5eb58476f88d4008fa483809,pictureLabels,NA,FL,tobdepwugbim,160325,3,low,dep,red,exp,NA
16,8k7ujzqkju,520,image-button-response,1099,5e8b2e599abd417d9512a877,pictureLabels,wug,LF,tobdepwugbim,160325,3,low,dep,red,exp,0
16,wod6ma11s3,520,image-button-response,2175,5f8228f40afba53534e6f583,pictureLabels,wug,FL,tobdepwugbim,160325,3,low,dep,red,exp,0
16,3a2waojqmg,520,image-button-response,1319,5e6a2c7c5b057b08e930e89d,pictureLabels,tob,FL,tobdepwugbim,160325,3,low,dep,red,exp,0
16,67zqwpqc3v,520,image-button-response,839,5ea3066769713007dfc5f1c3,pictureLabels,dep,LF,tobdepwugbim,160325,3,low,dep,red,exp,1
17,jlov66vr8s,522,image-button-response,1357,5fc65eb000091528ea745f65,pictureLabels,tob,FL,tobdepwugbim,170175,1,high,tob,red,exp,1
17,cjpw7y8c1k,522,image-button-response,654,5efdc12f5d69f622915a97a1,pictureLabels,tob,LF,tobdepwugbim,170175,1,high,tob,red,exp,1
17,w2brxm7ay2,522,image-button-response,NA,5f60713e595007000a8e1da7,pictureLabels,NA,FL,tobdepwugbim,170175,1,high,tob,red,exp,NA
17,8706z1pc24,522,image-button-response,1583,5c916456ec114b0016418dca,pictureLabels,tob,LF,tobdepwugbim,170175,1,high,tob,red,exp,1
17,kfhtlqkth4,522,image-button-response,2095,5edf8803c008532459792282,pictureLabels,tob,FL,tobdepwugbim,170175,1,high,tob,red,exp,1
17,pmz1eqhg0u,522,image-button-response,1367,5f1bfe98441e2743f34fa16a,pictureLabels,tob,LF,tobdepwugbim,170175,1,high,tob,red,exp,1
17,hcnkaylepg,522,image-button-response,1179,5ce8ebe9c9379d0019898681,pictureLabels,tob,FL,tobdepwugbim,170175,1,high,tob,red,exp,1
17,ym6cxam2f3,522,image-button-response,783,5ee87dba82ed8101333c7744,pictureLabels,tob,FL,tobdepwugbim,170175,1,high,tob,red,exp,1
17,163k2z1uov,522,image-button-response,2463,5f11ccbc1a1a2c08b4a99efb,pictureLabels,wug,LF,tobdepwugbim,170175,1,high,tob,red,exp,0
17,psp3bt1vuy,522,image-button-response,1106,5933d3c4ed2e9a0001d37ab4,pictureLabels,dep,FL,tobdepwugbim,170175,1,high,tob,red,exp,0
17,ker7u0dhxt,522,image-button-response,707,5c87d68fe5bc060001ee8498,pictureLabels,tob,FL,tobdepwugbim,170175,1,high,tob,red,exp,1
17,ol68ft1h8h,522,image-button-response,1560,5e5e17c97593e912e086c640,pictureLabels,tob,FL,tobdepwugbim,170175,1,high,tob,red,exp,1
17,xu8vthdm2k,522,image-button-response,1044,5f85eb74d99dd00d735c107f,pictureLabels,tob,FL,tobdepwugbim,170175,1,high,tob,red,exp,1
17,71bdswcm9k,522,image-button-response,2072,5f591a5a9a49e211efead835,pictureLabels,tob,LF,tobdepwugbim,170175,1,high,tob,red,exp,1
17,pusqm5jv5t,522,image-button-response,2652,5f477a85d919ec03cadfaddd,pictureLabels,tob,FL,tobdepwugbim,170175,1,high,tob,red,exp,1
17,ffbjr4pqha,522,image-button-response,698,6009c27b9e9b700266fd52b5,pictureLabels,wug,FL,tobdepwugbim,170175,1,high,tob,red,exp,0
17,g8ez0w4wvj,522,image-button-response,560,5ec32348079dcc17451cac16,pictureLabels,tob,FL,tobdepwugbim,170175,1,high,tob,red,exp,1
17,e4s1gf870t,522,image-button-response,910,5f677b748c011837e12cba61,pictureLabels,tob,FL,tobdepwugbim,170175,1,high,tob,red,exp,1
17,qfloq0vkd1,522,image-button-response,2212,5acb896da3ba7a0001b4e99f,pictureLabels,tob,LF,tobdepwugbim,170175,1,high,tob,red,exp,1
17,mvqchu948c,522,image-button-response,1690,5b421b9ac2e3810001763252,pictureLabels,tob,FL,tobdepwugbim,170175,1,high,tob,red,exp,1
17,o0xz7vf2yt,522,image-button-response,860,5f2b196c0c610f4ec3eb5451,pictureLabels,tob,LF,tobdepwugbim,170175,1,high,tob,red,exp,1
17,1gynr5ywqp,522,image-button-response,2702,5db1bba0e20f58000b8717f6,pictureLabels,wug,FL,tobdepwugbim,170175,1,high,tob,red,exp,0
17,j07stgzsr2,522,image-button-response,1105,5d77c0eb4a666c0019561a80,pictureLabels,tob,FL,tobdepwugbim,170175,1,high,tob,red,exp,1
17,t2ubvm70lv,522,image-button-response,868,5f858743256d25036d9fa693,pictureLabels,dep,LF,tobdepwugbim,170175,1,high,tob,red,exp,0
17,hc4uh4u04h,522,image-button-response,1155,5f5d6c3cbacc025bf0a03440,pictureLabels,tob,FL,tobdepwugbim,170175,1,high,tob,red,exp,1
17,aj9q5o0gf2,522,image-button-response,2250,5b01e69aa496b300013d5b9b,pictureLabels,tob,FL,tobdepwugbim,170175,1,high,tob,red,exp,1
17,4euvjgbfcc,522,image-button-response,796,600355394a113e408f54cce5,pictureLabels,tob,LF,tobdepwugbim,170175,1,high,tob,red,exp,1
17,ek1v85vere,522,image-button-response,1036,5bdcd99964215c0001282b34,pictureLabels,tob,LF,tobdepwugbim,170175,1,high,tob,red,exp,1
17,pbt3n7l1gj,522,image-button-response,2085,5f63d70e4e460f141abccbc1,pictureLabels,tob,FL,tobdepwugbim,170175,1,high,tob,red,exp,1
17,q963ed16o4,522,image-button-response,930,6006cf1238099707863fc7b4,pictureLabels,tob,FL,tobdepwugbim,170175,1,high,tob,red,exp,1
17,xekfnorue1,522,image-button-response,2027,5a11a7d0f2e3460001edbe35,pictureLabels,dep,FL,tobdepwugbim,170175,1,high,tob,red,exp,0
17,yj9gmh2tyv,522,image-button-response,1024,5e8dcc81e6686e035680594e,pictureLabels,tob,LF,tobdepwugbim,170175,1,high,tob,red,exp,1
17,9q76krfydn,522,image-button-response,852,5f3d9a9f10a5f219cfe0b404,pictureLabels,tob,FL,tobdepwugbim,170175,1,high,tob,red,exp,1
17,y20qp8dcxo,522,image-button-response,1135,5f578563765fec223eb51594,pictureLabels,tob,LF,tobdepwugbim,170175,1,high,tob,red,exp,1
17,o7w146d4yj,522,image-button-response,1301,5f343de4d0c07630b7f90b92,pictureLabels,tob,LF,tobdepwugbim,170175,1,high,tob,red,exp,1
17,rl7z98kzoa,522,image-button-response,675,5faa8121f8f5533a5c7f7a20,pictureLabels,dep,LF,tobdepwugbim,170175,1,high,tob,red,exp,0
17,5g2fbehb04,522,image-button-response,2272,591a1f4800a5650001276188,pictureLabels,wug,FL,tobdepwugbim,170175,1,high,tob,red,exp,0
17,fggxxfkvfo,522,image-button-response,3327,5fbfb86436a5de31c546f37b,pictureLabels,tob,LF,tobdepwugbim,170175,1,high,tob,red,exp,1
17,1e9hhup9lf,522,image-button-response,779,5cbc680bfb8dfe0001839ba2,pictureLabels,wug,LF,tobdepwugbim,170175,1,high,tob,red,exp,0
17,e9dxj57s6l,522,image-button-response,1215,5eb58476f88d4008fa483809,pictureLabels,tob,FL,tobdepwugbim,170175,1,high,tob,red,exp,1
17,3mctt6t3lt,522,image-button-response,858,5b3cb17b6779080001fe88c1,pictureLabels,tob,FL,tobdepwugbim,170175,1,high,tob,red,exp,1
17,t8qovvqyjq,522,image-button-response,1072,5f89cbc45b38f5016101011c,pictureLabels,tob,FL,tobdepwugbim,170175,1,high,tob,red,exp,1
17,85gul0f7qh,522,image-button-response,1055,5e4ab1b4ca765d000edebd15,pictureLabels,tob,LF,tobdepwugbim,170175,1,high,tob,red,exp,1
17,8k7ujzqkju,522,image-button-response,1134,5e8b2e599abd417d9512a877,pictureLabels,wug,LF,tobdepwugbim,170175,1,high,tob,red,exp,0
17,67zqwpqc3v,522,image-button-response,1032,5ea3066769713007dfc5f1c3,pictureLabels,tob,LF,tobdepwugbim,170175,1,high,tob,red,exp,1
17,ufb4y7bj2f,522,image-button-response,1429,5c2ce112f422870001fcab1f,pictureLabels,tob,FL,tobdepwugbim,170175,1,high,tob,red,exp,1
17,uyc3tp4v50,522,image-button-response,867,6017d6a23bdebea5e9062e9d,pictureLabels,dep,FL,tobdepwugbim,170175,1,high,tob,red,exp,0
17,3a2waojqmg,522,image-button-response,1090,5e6a2c7c5b057b08e930e89d,pictureLabels,tob,FL,tobdepwugbim,170175,1,high,tob,red,exp,1
17,wod6ma11s3,522,image-button-response,1271,5f8228f40afba53534e6f583,pictureLabels,tob,FL,tobdepwugbim,170175,1,high,tob,red,exp,1
18,hcnkaylepg,524,image-button-response,1314,5ce8ebe9c9379d0019898681,pictureLabels,wug,FL,tobdepwugbim,180275,2,high,wug,purple,exp,1
18,pmz1eqhg0u,524,image-button-response,2221,5f1bfe98441e2743f34fa16a,pictureLabels,bim,LF,tobdepwugbim,180275,2,high,wug,purple,exp,0
18,163k2z1uov,524,image-button-response,1612,5f11ccbc1a1a2c08b4a99efb,pictureLabels,dep,LF,tobdepwugbim,180275,2,high,wug,purple,exp,0
18,71bdswcm9k,524,image-button-response,1210,5f591a5a9a49e211efead835,pictureLabels,wug,LF,tobdepwugbim,180275,2,high,wug,purple,exp,1
18,j07stgzsr2,524,image-button-response,956,5d77c0eb4a666c0019561a80,pictureLabels,wug,FL,tobdepwugbim,180275,2,high,wug,purple,exp,1
18,8706z1pc24,524,image-button-response,1054,5c916456ec114b0016418dca,pictureLabels,wug,LF,tobdepwugbim,180275,2,high,wug,purple,exp,1
18,mvqchu948c,524,image-button-response,1394,5b421b9ac2e3810001763252,pictureLabels,wug,FL,tobdepwugbim,180275,2,high,wug,purple,exp,1
18,hc4uh4u04h,524,image-button-response,1051,5f5d6c3cbacc025bf0a03440,pictureLabels,wug,FL,tobdepwugbim,180275,2,high,wug,purple,exp,1
18,q963ed16o4,524,image-button-response,1168,6006cf1238099707863fc7b4,pictureLabels,wug,FL,tobdepwugbim,180275,2,high,wug,purple,exp,1
18,w2brxm7ay2,524,image-button-response,1495,5f60713e595007000a8e1da7,pictureLabels,wug,FL,tobdepwugbim,180275,2,high,wug,purple,exp,1
18,jlov66vr8s,524,image-button-response,988,5fc65eb000091528ea745f65,pictureLabels,wug,FL,tobdepwugbim,180275,2,high,wug,purple,exp,1
18,qfloq0vkd1,524,image-button-response,653,5acb896da3ba7a0001b4e99f,pictureLabels,wug,LF,tobdepwugbim,180275,2,high,wug,purple,exp,1
18,9q76krfydn,524,image-button-response,912,5f3d9a9f10a5f219cfe0b404,pictureLabels,wug,FL,tobdepwugbim,180275,2,high,wug,purple,exp,1
18,1gynr5ywqp,524,image-button-response,937,5db1bba0e20f58000b8717f6,pictureLabels,dep,FL,tobdepwugbim,180275,2,high,wug,purple,exp,0
18,5g2fbehb04,524,image-button-response,903,591a1f4800a5650001276188,pictureLabels,wug,FL,tobdepwugbim,180275,2,high,wug,purple,exp,1
18,g8ez0w4wvj,524,image-button-response,681,5ec32348079dcc17451cac16,pictureLabels,wug,FL,tobdepwugbim,180275,2,high,wug,purple,exp,1
18,xu8vthdm2k,524,image-button-response,820,5f85eb74d99dd00d735c107f,pictureLabels,wug,FL,tobdepwugbim,180275,2,high,wug,purple,exp,1
18,cjpw7y8c1k,524,image-button-response,981,5efdc12f5d69f622915a97a1,pictureLabels,wug,LF,tobdepwugbim,180275,2,high,wug,purple,exp,1
18,3mctt6t3lt,524,image-button-response,859,5b3cb17b6779080001fe88c1,pictureLabels,wug,FL,tobdepwugbim,180275,2,high,wug,purple,exp,1
18,ek1v85vere,524,image-button-response,1314,5bdcd99964215c0001282b34,pictureLabels,wug,LF,tobdepwugbim,180275,2,high,wug,purple,exp,1
18,4euvjgbfcc,524,image-button-response,1102,600355394a113e408f54cce5,pictureLabels,wug,LF,tobdepwugbim,180275,2,high,wug,purple,exp,1
18,psp3bt1vuy,524,image-button-response,999,5933d3c4ed2e9a0001d37ab4,pictureLabels,wug,FL,tobdepwugbim,180275,2,high,wug,purple,exp,1
18,e9dxj57s6l,524,image-button-response,1724,5eb58476f88d4008fa483809,pictureLabels,wug,FL,tobdepwugbim,180275,2,high,wug,purple,exp,1
18,ufb4y7bj2f,524,image-button-response,964,5c2ce112f422870001fcab1f,pictureLabels,wug,FL,tobdepwugbim,180275,2,high,wug,purple,exp,1
18,xekfnorue1,524,image-button-response,1506,5a11a7d0f2e3460001edbe35,pictureLabels,wug,FL,tobdepwugbim,180275,2,high,wug,purple,exp,1
18,y20qp8dcxo,524,image-button-response,1679,5f578563765fec223eb51594,pictureLabels,wug,LF,tobdepwugbim,180275,2,high,wug,purple,exp,1
18,ker7u0dhxt,524,image-button-response,875,5c87d68fe5bc060001ee8498,pictureLabels,wug,FL,tobdepwugbim,180275,2,high,wug,purple,exp,1
18,o0xz7vf2yt,524,image-button-response,1076,5f2b196c0c610f4ec3eb5451,pictureLabels,wug,LF,tobdepwugbim,180275,2,high,wug,purple,exp,1
18,ym6cxam2f3,524,image-button-response,949,5ee87dba82ed8101333c7744,pictureLabels,wug,FL,tobdepwugbim,180275,2,high,wug,purple,exp,1
18,fggxxfkvfo,524,image-button-response,1403,5fbfb86436a5de31c546f37b,pictureLabels,dep,LF,tobdepwugbim,180275,2,high,wug,purple,exp,0
18,pusqm5jv5t,524,image-button-response,1224,5f477a85d919ec03cadfaddd,pictureLabels,wug,FL,tobdepwugbim,180275,2,high,wug,purple,exp,1
18,kfhtlqkth4,524,image-button-response,2294,5edf8803c008532459792282,pictureLabels,dep,FL,tobdepwugbim,180275,2,high,wug,purple,exp,0
18,t8qovvqyjq,524,image-button-response,1041,5f89cbc45b38f5016101011c,pictureLabels,wug,FL,tobdepwugbim,180275,2,high,wug,purple,exp,1
18,rl7z98kzoa,524,image-button-response,1029,5faa8121f8f5533a5c7f7a20,pictureLabels,wug,LF,tobdepwugbim,180275,2,high,wug,purple,exp,1
18,1e9hhup9lf,524,image-button-response,1061,5cbc680bfb8dfe0001839ba2,pictureLabels,dep,LF,tobdepwugbim,180275,2,high,wug,purple,exp,0
18,3a2waojqmg,524,image-button-response,1252,5e6a2c7c5b057b08e930e89d,pictureLabels,wug,FL,tobdepwugbim,180275,2,high,wug,purple,exp,1
18,o7w146d4yj,524,image-button-response,2052,5f343de4d0c07630b7f90b92,pictureLabels,wug,LF,tobdepwugbim,180275,2,high,wug,purple,exp,1
18,yj9gmh2tyv,524,image-button-response,3298,5e8dcc81e6686e035680594e,pictureLabels,wug,LF,tobdepwugbim,180275,2,high,wug,purple,exp,1
18,e4s1gf870t,524,image-button-response,927,5f677b748c011837e12cba61,pictureLabels,wug,FL,tobdepwugbim,180275,2,high,wug,purple,exp,1
18,t2ubvm70lv,524,image-button-response,1083,5f858743256d25036d9fa693,pictureLabels,wug,LF,tobdepwugbim,180275,2,high,wug,purple,exp,1
18,aj9q5o0gf2,524,image-button-response,1063,5b01e69aa496b300013d5b9b,pictureLabels,wug,FL,tobdepwugbim,180275,2,high,wug,purple,exp,1
18,ol68ft1h8h,524,image-button-response,1125,5e5e17c97593e912e086c640,pictureLabels,wug,FL,tobdepwugbim,180275,2,high,wug,purple,exp,1
18,pbt3n7l1gj,524,image-button-response,2953,5f63d70e4e460f141abccbc1,pictureLabels,wug,FL,tobdepwugbim,180275,2,high,wug,purple,exp,1
18,8k7ujzqkju,524,image-button-response,1473,5e8b2e599abd417d9512a877,pictureLabels,tob,LF,tobdepwugbim,180275,2,high,wug,purple,exp,0
18,ffbjr4pqha,524,image-button-response,1088,6009c27b9e9b700266fd52b5,pictureLabels,tob,FL,tobdepwugbim,180275,2,high,wug,purple,exp,0
18,67zqwpqc3v,524,image-button-response,1736,5ea3066769713007dfc5f1c3,pictureLabels,wug,LF,tobdepwugbim,180275,2,high,wug,purple,exp,1
18,uyc3tp4v50,524,image-button-response,808,6017d6a23bdebea5e9062e9d,pictureLabels,wug,FL,tobdepwugbim,180275,2,high,wug,purple,exp,1
18,85gul0f7qh,524,image-button-response,1007,5e4ab1b4ca765d000edebd15,pictureLabels,wug,LF,tobdepwugbim,180275,2,high,wug,purple,exp,1
18,wod6ma11s3,524,image-button-response,1590,5f8228f40afba53534e6f583,pictureLabels,wug,FL,tobdepwugbim,180275,2,high,wug,purple,exp,1
19,163k2z1uov,526,image-button-response,1464,5f11ccbc1a1a2c08b4a99efb,pictureLabels,dep,LF,tobdepwugbim,190375,3,high,dep,blue,exp,1
19,y20qp8dcxo,526,image-button-response,1696,5f578563765fec223eb51594,pictureLabels,dep,LF,tobdepwugbim,190375,3,high,dep,blue,exp,1
19,1e9hhup9lf,526,image-button-response,1007,5cbc680bfb8dfe0001839ba2,pictureLabels,wug,LF,tobdepwugbim,190375,3,high,dep,blue,exp,0
19,hcnkaylepg,526,image-button-response,1609,5ce8ebe9c9379d0019898681,pictureLabels,dep,FL,tobdepwugbim,190375,3,high,dep,blue,exp,1
19,qfloq0vkd1,526,image-button-response,1037,5acb896da3ba7a0001b4e99f,pictureLabels,dep,LF,tobdepwugbim,190375,3,high,dep,blue,exp,1
19,9q76krfydn,526,image-button-response,1227,5f3d9a9f10a5f219cfe0b404,pictureLabels,dep,FL,tobdepwugbim,190375,3,high,dep,blue,exp,1
19,uyc3tp4v50,526,image-button-response,1824,6017d6a23bdebea5e9062e9d,pictureLabels,tob,FL,tobdepwugbim,190375,3,high,dep,blue,exp,0
19,ufb4y7bj2f,526,image-button-response,1531,5c2ce112f422870001fcab1f,pictureLabels,tob,FL,tobdepwugbim,190375,3,high,dep,blue,exp,0
19,8706z1pc24,526,image-button-response,1898,5c916456ec114b0016418dca,pictureLabels,tob,LF,tobdepwugbim,190375,3,high,dep,blue,exp,0
19,jlov66vr8s,526,image-button-response,1302,5fc65eb000091528ea745f65,pictureLabels,dep,FL,tobdepwugbim,190375,3,high,dep,blue,exp,1
19,5g2fbehb04,526,image-button-response,2646,591a1f4800a5650001276188,pictureLabels,dep,FL,tobdepwugbim,190375,3,high,dep,blue,exp,1
19,j07stgzsr2,526,image-button-response,803,5d77c0eb4a666c0019561a80,pictureLabels,dep,FL,tobdepwugbim,190375,3,high,dep,blue,exp,1
19,3mctt6t3lt,526,image-button-response,898,5b3cb17b6779080001fe88c1,pictureLabels,dep,FL,tobdepwugbim,190375,3,high,dep,blue,exp,1
19,e9dxj57s6l,526,image-button-response,1615,5eb58476f88d4008fa483809,pictureLabels,dep,FL,tobdepwugbim,190375,3,high,dep,blue,exp,1
19,pusqm5jv5t,526,image-button-response,1283,5f477a85d919ec03cadfaddd,pictureLabels,dep,FL,tobdepwugbim,190375,3,high,dep,blue,exp,1
19,q963ed16o4,526,image-button-response,1104,6006cf1238099707863fc7b4,pictureLabels,dep,FL,tobdepwugbim,190375,3,high,dep,blue,exp,1
19,w2brxm7ay2,526,image-button-response,1015,5f60713e595007000a8e1da7,pictureLabels,dep,FL,tobdepwugbim,190375,3,high,dep,blue,exp,1
19,xekfnorue1,526,image-button-response,1112,5a11a7d0f2e3460001edbe35,pictureLabels,tob,FL,tobdepwugbim,190375,3,high,dep,blue,exp,0
19,mvqchu948c,526,image-button-response,1371,5b421b9ac2e3810001763252,pictureLabels,bim,FL,tobdepwugbim,190375,3,high,dep,blue,exp,0
19,71bdswcm9k,526,image-button-response,1306,5f591a5a9a49e211efead835,pictureLabels,dep,LF,tobdepwugbim,190375,3,high,dep,blue,exp,1
19,1gynr5ywqp,526,image-button-response,572,5db1bba0e20f58000b8717f6,pictureLabels,wug,FL,tobdepwugbim,190375,3,high,dep,blue,exp,0
19,ym6cxam2f3,526,image-button-response,896,5ee87dba82ed8101333c7744,pictureLabels,dep,FL,tobdepwugbim,190375,3,high,dep,blue,exp,1
19,hc4uh4u04h,526,image-button-response,1364,5f5d6c3cbacc025bf0a03440,pictureLabels,dep,FL,tobdepwugbim,190375,3,high,dep,blue,exp,1
19,ker7u0dhxt,526,image-button-response,618,5c87d68fe5bc060001ee8498,pictureLabels,bim,FL,tobdepwugbim,190375,3,high,dep,blue,exp,0
19,t8qovvqyjq,526,image-button-response,1129,5f89cbc45b38f5016101011c,pictureLabels,dep,FL,tobdepwugbim,190375,3,high,dep,blue,exp,1
19,kfhtlqkth4,526,image-button-response,2016,5edf8803c008532459792282,pictureLabels,bim,FL,tobdepwugbim,190375,3,high,dep,blue,exp,0
19,rl7z98kzoa,526,image-button-response,2052,5faa8121f8f5533a5c7f7a20,pictureLabels,tob,LF,tobdepwugbim,190375,3,high,dep,blue,exp,0
19,67zqwpqc3v,526,image-button-response,913,5ea3066769713007dfc5f1c3,pictureLabels,tob,LF,tobdepwugbim,190375,3,high,dep,blue,exp,0
19,3a2waojqmg,526,image-button-response,1313,5e6a2c7c5b057b08e930e89d,pictureLabels,bim,FL,tobdepwugbim,190375,3,high,dep,blue,exp,0
19,o7w146d4yj,526,image-button-response,1103,5f343de4d0c07630b7f90b92,pictureLabels,dep,LF,tobdepwugbim,190375,3,high,dep,blue,exp,1
19,yj9gmh2tyv,526,image-button-response,2273,5e8dcc81e6686e035680594e,pictureLabels,dep,LF,tobdepwugbim,190375,3,high,dep,blue,exp,1
19,e4s1gf870t,526,image-button-response,1129,5f677b748c011837e12cba61,pictureLabels,wug,FL,tobdepwugbim,190375,3,high,dep,blue,exp,0
19,pmz1eqhg0u,526,image-button-response,1283,5f1bfe98441e2743f34fa16a,pictureLabels,wug,LF,tobdepwugbim,190375,3,high,dep,blue,exp,0
19,cjpw7y8c1k,526,image-button-response,1120,5efdc12f5d69f622915a97a1,pictureLabels,dep,LF,tobdepwugbim,190375,3,high,dep,blue,exp,1
19,o0xz7vf2yt,526,image-button-response,1585,5f2b196c0c610f4ec3eb5451,pictureLabels,dep,LF,tobdepwugbim,190375,3,high,dep,blue,exp,1
19,ek1v85vere,526,image-button-response,749,5bdcd99964215c0001282b34,pictureLabels,dep,LF,tobdepwugbim,190375,3,high,dep,blue,exp,1
19,4euvjgbfcc,526,image-button-response,2082,600355394a113e408f54cce5,pictureLabels,bim,LF,tobdepwugbim,190375,3,high,dep,blue,exp,0
19,psp3bt1vuy,526,image-button-response,1205,5933d3c4ed2e9a0001d37ab4,pictureLabels,tob,FL,tobdepwugbim,190375,3,high,dep,blue,exp,0
19,pbt3n7l1gj,526,image-button-response,897,5f63d70e4e460f141abccbc1,pictureLabels,dep,FL,tobdepwugbim,190375,3,high,dep,blue,exp,1
19,aj9q5o0gf2,526,image-button-response,1907,5b01e69aa496b300013d5b9b,pictureLabels,dep,FL,tobdepwugbim,190375,3,high,dep,blue,exp,1
19,g8ez0w4wvj,526,image-button-response,629,5ec32348079dcc17451cac16,pictureLabels,dep,FL,tobdepwugbim,190375,3,high,dep,blue,exp,1
19,xu8vthdm2k,526,image-button-response,884,5f85eb74d99dd00d735c107f,pictureLabels,dep,FL,tobdepwugbim,190375,3,high,dep,blue,exp,1
19,ffbjr4pqha,526,image-button-response,899,6009c27b9e9b700266fd52b5,pictureLabels,dep,FL,tobdepwugbim,190375,3,high,dep,blue,exp,1
19,ol68ft1h8h,526,image-button-response,1953,5e5e17c97593e912e086c640,pictureLabels,wug,FL,tobdepwugbim,190375,3,high,dep,blue,exp,0
19,wod6ma11s3,526,image-button-response,943,5f8228f40afba53534e6f583,pictureLabels,dep,FL,tobdepwugbim,190375,3,high,dep,blue,exp,1
19,t2ubvm70lv,526,image-button-response,2529,5f858743256d25036d9fa693,pictureLabels,wug,LF,tobdepwugbim,190375,3,high,dep,blue,exp,0
19,85gul0f7qh,526,image-button-response,1259,5e4ab1b4ca765d000edebd15,pictureLabels,dep,LF,tobdepwugbim,190375,3,high,dep,blue,exp,1
19,8k7ujzqkju,526,image-button-response,994,5e8b2e599abd417d9512a877,pictureLabels,wug,LF,tobdepwugbim,190375,3,high,dep,blue,exp,0
19,fggxxfkvfo,526,image-button-response,1216,5fbfb86436a5de31c546f37b,pictureLabels,wug,LF,tobdepwugbim,190375,3,high,dep,blue,exp,0
2,e4s1gf870t,492,image-button-response,1226,5f677b748c011837e12cba61,pictureLabels,tob,FL,tobdepwugbim,20175,1,high,tob,red,exp,1
2,yj9gmh2tyv,492,image-button-response,2416,5e8dcc81e6686e035680594e,pictureLabels,tob,LF,tobdepwugbim,20175,1,high,tob,red,exp,1
2,o0xz7vf2yt,492,image-button-response,1683,5f2b196c0c610f4ec3eb5451,pictureLabels,tob,LF,tobdepwugbim,20175,1,high,tob,red,exp,1
2,1gynr5ywqp,492,image-button-response,1040,5db1bba0e20f58000b8717f6,pictureLabels,tob,FL,tobdepwugbim,20175,1,high,tob,red,exp,1
2,ffbjr4pqha,492,image-button-response,2862,6009c27b9e9b700266fd52b5,pictureLabels,wug,FL,tobdepwugbim,20175,1,high,tob,red,exp,0
2,xu8vthdm2k,492,image-button-response,2076,5f85eb74d99dd00d735c107f,pictureLabels,wug,FL,tobdepwugbim,20175,1,high,tob,red,exp,0
2,ol68ft1h8h,492,image-button-response,2479,5e5e17c97593e912e086c640,pictureLabels,tob,FL,tobdepwugbim,20175,1,high,tob,red,exp,1
2,pmz1eqhg0u,492,image-button-response,3188,5f1bfe98441e2743f34fa16a,pictureLabels,tob,LF,tobdepwugbim,20175,1,high,tob,red,exp,1
2,kfhtlqkth4,492,image-button-response,2812,5edf8803c008532459792282,pictureLabels,tob,FL,tobdepwugbim,20175,1,high,tob,red,exp,1
2,3mctt6t3lt,492,image-button-response,1748,5b3cb17b6779080001fe88c1,pictureLabels,tob,FL,tobdepwugbim,20175,1,high,tob,red,exp,1
2,67zqwpqc3v,492,image-button-response,1921,5ea3066769713007dfc5f1c3,pictureLabels,dep,LF,tobdepwugbim,20175,1,high,tob,red,exp,0
2,psp3bt1vuy,492,image-button-response,1256,5933d3c4ed2e9a0001d37ab4,pictureLabels,wug,FL,tobdepwugbim,20175,1,high,tob,red,exp,0
2,uyc3tp4v50,492,image-button-response,3200,6017d6a23bdebea5e9062e9d,pictureLabels,dep,FL,tobdepwugbim,20175,1,high,tob,red,exp,0
2,1e9hhup9lf,492,image-button-response,1590,5cbc680bfb8dfe0001839ba2,pictureLabels,dep,LF,tobdepwugbim,20175,1,high,tob,red,exp,0
2,9q76krfydn,492,image-button-response,1052,5f3d9a9f10a5f219cfe0b404,pictureLabels,tob,FL,tobdepwugbim,20175,1,high,tob,red,exp,1
2,y20qp8dcxo,492,image-button-response,1839,5f578563765fec223eb51594,pictureLabels,tob,LF,tobdepwugbim,20175,1,high,tob,red,exp,1
2,5g2fbehb04,492,image-button-response,NA,591a1f4800a5650001276188,pictureLabels,NA,FL,tobdepwugbim,20175,1,high,tob,red,exp,NA
2,ym6cxam2f3,492,image-button-response,961,5ee87dba82ed8101333c7744,pictureLabels,tob,FL,tobdepwugbim,20175,1,high,tob,red,exp,1
2,fggxxfkvfo,492,image-button-response,2658,5fbfb86436a5de31c546f37b,pictureLabels,wug,LF,tobdepwugbim,20175,1,high,tob,red,exp,0
2,t2ubvm70lv,492,image-button-response,1987,5f858743256d25036d9fa693,pictureLabels,dep,LF,tobdepwugbim,20175,1,high,tob,red,exp,0
2,ker7u0dhxt,492,image-button-response,1352,5c87d68fe5bc060001ee8498,pictureLabels,wug,FL,tobdepwugbim,20175,1,high,tob,red,exp,0
2,t8qovvqyjq,492,image-button-response,1324,5f89cbc45b38f5016101011c,pictureLabels,tob,FL,tobdepwugbim,20175,1,high,tob,red,exp,1
2,cjpw7y8c1k,492,image-button-response,1582,5efdc12f5d69f622915a97a1,pictureLabels,tob,LF,tobdepwugbim,20175,1,high,tob,red,exp,1
2,pusqm5jv5t,492,image-button-response,2439,5f477a85d919ec03cadfaddd,pictureLabels,dep,FL,tobdepwugbim,20175,1,high,tob,red,exp,0
2,ek1v85vere,492,image-button-response,1473,5bdcd99964215c0001282b34,pictureLabels,tob,LF,tobdepwugbim,20175,1,high,tob,red,exp,1
2,e9dxj57s6l,492,image-button-response,2262,5eb58476f88d4008fa483809,pictureLabels,tob,FL,tobdepwugbim,20175,1,high,tob,red,exp,1
2,ufb4y7bj2f,492,image-button-response,1289,5c2ce112f422870001fcab1f,pictureLabels,tob,FL,tobdepwugbim,20175,1,high,tob,red,exp,1
2,xekfnorue1,492,image-button-response,1899,5a11a7d0f2e3460001edbe35,pictureLabels,dep,FL,tobdepwugbim,20175,1,high,tob,red,exp,0
2,mvqchu948c,492,image-button-response,1813,5b421b9ac2e3810001763252,pictureLabels,bim,FL,tobdepwugbim,20175,1,high,tob,red,exp,0
2,163k2z1uov,492,image-button-response,2238,5f11ccbc1a1a2c08b4a99efb,pictureLabels,dep,LF,tobdepwugbim,20175,1,high,tob,red,exp,0
2,hcnkaylepg,492,image-button-response,1675,5ce8ebe9c9379d0019898681,pictureLabels,tob,FL,tobdepwugbim,20175,1,high,tob,red,exp,1
2,j07stgzsr2,492,image-button-response,1750,5d77c0eb4a666c0019561a80,pictureLabels,tob,FL,tobdepwugbim,20175,1,high,tob,red,exp,1
2,g8ez0w4wvj,492,image-button-response,1567,5ec32348079dcc17451cac16,pictureLabels,tob,FL,tobdepwugbim,20175,1,high,tob,red,exp,1
2,hc4uh4u04h,492,image-button-response,2484,5f5d6c3cbacc025bf0a03440,pictureLabels,wug,FL,tobdepwugbim,20175,1,high,tob,red,exp,0
2,85gul0f7qh,492,image-button-response,2723,5e4ab1b4ca765d000edebd15,pictureLabels,tob,LF,tobdepwugbim,20175,1,high,tob,red,exp,1
2,wod6ma11s3,492,image-button-response,1036,5f8228f40afba53534e6f583,pictureLabels,tob,FL,tobdepwugbim,20175,1,high,tob,red,exp,1
2,pbt3n7l1gj,492,image-button-response,1806,5f63d70e4e460f141abccbc1,pictureLabels,tob,FL,tobdepwugbim,20175,1,high,tob,red,exp,1
2,rl7z98kzoa,492,image-button-response,2917,5faa8121f8f5533a5c7f7a20,pictureLabels,dep,LF,tobdepwugbim,20175,1,high,tob,red,exp,0
2,3a2waojqmg,492,image-button-response,1991,5e6a2c7c5b057b08e930e89d,pictureLabels,tob,FL,tobdepwugbim,20175,1,high,tob,red,exp,1
2,o7w146d4yj,492,image-button-response,1610,5f343de4d0c07630b7f90b92,pictureLabels,tob,LF,tobdepwugbim,20175,1,high,tob,red,exp,1
2,q963ed16o4,492,image-button-response,1253,6006cf1238099707863fc7b4,pictureLabels,tob,FL,tobdepwugbim,20175,1,high,tob,red,exp,1
2,qfloq0vkd1,492,image-button-response,2004,5acb896da3ba7a0001b4e99f,pictureLabels,tob,LF,tobdepwugbim,20175,1,high,tob,red,exp,1
2,71bdswcm9k,492,image-button-response,1335,5f591a5a9a49e211efead835,pictureLabels,dep,LF,tobdepwugbim,20175,1,high,tob,red,exp,0
2,jlov66vr8s,492,image-button-response,1605,5fc65eb000091528ea745f65,pictureLabels,tob,FL,tobdepwugbim,20175,1,high,tob,red,exp,1
2,aj9q5o0gf2,492,image-button-response,2528,5b01e69aa496b300013d5b9b,pictureLabels,dep,FL,tobdepwugbim,20175,1,high,tob,red,exp,0
2,8706z1pc24,492,image-button-response,1209,5c916456ec114b0016418dca,pictureLabels,tob,LF,tobdepwugbim,20175,1,high,tob,red,exp,1
2,4euvjgbfcc,492,image-button-response,2698,600355394a113e408f54cce5,pictureLabels,tob,LF,tobdepwugbim,20175,1,high,tob,red,exp,1
2,8k7ujzqkju,492,image-button-response,705,5e8b2e599abd417d9512a877,pictureLabels,wug,LF,tobdepwugbim,20175,1,high,tob,red,exp,0
2,w2brxm7ay2,492,image-button-response,2838,5f60713e595007000a8e1da7,pictureLabels,dep,FL,tobdepwugbim,20175,1,high,tob,red,exp,0
20,xekfnorue1,528,image-button-response,998,5a11a7d0f2e3460001edbe35,pictureLabels,wug,FL,tobdepwugbim,200125,1,low,tob,purple,exp,0
20,e9dxj57s6l,528,image-button-response,2082,5eb58476f88d4008fa483809,pictureLabels,wug,FL,tobdepwugbim,200125,1,low,tob,purple,exp,0
20,y20qp8dcxo,528,image-button-response,1613,5f578563765fec223eb51594,pictureLabels,tob,LF,tobdepwugbim,200125,1,low,tob,purple,exp,1
20,163k2z1uov,528,image-button-response,1935,5f11ccbc1a1a2c08b4a99efb,pictureLabels,tob,LF,tobdepwugbim,200125,1,low,tob,purple,exp,1
20,uyc3tp4v50,528,image-button-response,844,6017d6a23bdebea5e9062e9d,pictureLabels,wug,FL,tobdepwugbim,200125,1,low,tob,purple,exp,0
20,hcnkaylepg,528,image-button-response,1515,5ce8ebe9c9379d0019898681,pictureLabels,wug,FL,tobdepwugbim,200125,1,low,tob,purple,exp,0
20,psp3bt1vuy,528,image-button-response,1047,5933d3c4ed2e9a0001d37ab4,pictureLabels,wug,FL,tobdepwugbim,200125,1,low,tob,purple,exp,0
20,67zqwpqc3v,528,image-button-response,470,5ea3066769713007dfc5f1c3,pictureLabels,tob,LF,tobdepwugbim,200125,1,low,tob,purple,exp,1
20,ufb4y7bj2f,528,image-button-response,1184,5c2ce112f422870001fcab1f,pictureLabels,wug,FL,tobdepwugbim,200125,1,low,tob,purple,exp,0
20,qfloq0vkd1,528,image-button-response,1285,5acb896da3ba7a0001b4e99f,pictureLabels,tob,LF,tobdepwugbim,200125,1,low,tob,purple,exp,1
20,1e9hhup9lf,528,image-button-response,1023,5cbc680bfb8dfe0001839ba2,pictureLabels,bim,LF,tobdepwugbim,200125,1,low,tob,purple,exp,0
20,9q76krfydn,528,image-button-response,897,5f3d9a9f10a5f219cfe0b404,pictureLabels,dep,FL,tobdepwugbim,200125,1,low,tob,purple,exp,0
20,q963ed16o4,528,image-button-response,1187,6006cf1238099707863fc7b4,pictureLabels,wug,FL,tobdepwugbim,200125,1,low,tob,purple,exp,0
20,w2brxm7ay2,528,image-button-response,2452,5f60713e595007000a8e1da7,pictureLabels,wug,FL,tobdepwugbim,200125,1,low,tob,purple,exp,0
20,8706z1pc24,528,image-button-response,988,5c916456ec114b0016418dca,pictureLabels,wug,LF,tobdepwugbim,200125,1,low,tob,purple,exp,0
20,jlov66vr8s,528,image-button-response,2570,5fc65eb000091528ea745f65,pictureLabels,dep,FL,tobdepwugbim,200125,1,low,tob,purple,exp,0
20,o0xz7vf2yt,528,image-button-response,1974,5f2b196c0c610f4ec3eb5451,pictureLabels,tob,LF,tobdepwugbim,200125,1,low,tob,purple,exp,1
20,t8qovvqyjq,528,image-button-response,1107,5f89cbc45b38f5016101011c,pictureLabels,tob,FL,tobdepwugbim,200125,1,low,tob,purple,exp,1
20,3mctt6t3lt,528,image-button-response,1108,5b3cb17b6779080001fe88c1,pictureLabels,wug,FL,tobdepwugbim,200125,1,low,tob,purple,exp,0
20,rl7z98kzoa,528,image-button-response,802,5faa8121f8f5533a5c7f7a20,pictureLabels,wug,LF,tobdepwugbim,200125,1,low,tob,purple,exp,0
20,4euvjgbfcc,528,image-button-response,1098,600355394a113e408f54cce5,pictureLabels,wug,LF,tobdepwugbim,200125,1,low,tob,purple,exp,0
20,3a2waojqmg,528,image-button-response,1120,5e6a2c7c5b057b08e930e89d,pictureLabels,wug,FL,tobdepwugbim,200125,1,low,tob,purple,exp,0
20,o7w146d4yj,528,image-button-response,1304,5f343de4d0c07630b7f90b92,pictureLabels,dep,LF,tobdepwugbim,200125,1,low,tob,purple,exp,0
20,ym6cxam2f3,528,image-button-response,828,5ee87dba82ed8101333c7744,pictureLabels,wug,FL,tobdepwugbim,200125,1,low,tob,purple,exp,0
20,yj9gmh2tyv,528,image-button-response,2208,5e8dcc81e6686e035680594e,pictureLabels,tob,LF,tobdepwugbim,200125,1,low,tob,purple,exp,1
20,mvqchu948c,528,image-button-response,1647,5b421b9ac2e3810001763252,pictureLabels,wug,FL,tobdepwugbim,200125,1,low,tob,purple,exp,0
20,1gynr5ywqp,528,image-button-response,622,5db1bba0e20f58000b8717f6,pictureLabels,wug,FL,tobdepwugbim,200125,1,low,tob,purple,exp,0
20,kfhtlqkth4,528,image-button-response,2311,5edf8803c008532459792282,pictureLabels,wug,FL,tobdepwugbim,200125,1,low,tob,purple,exp,0
20,e4s1gf870t,528,image-button-response,1035,5f677b748c011837e12cba61,pictureLabels,dep,FL,tobdepwugbim,200125,1,low,tob,purple,exp,0
20,ker7u0dhxt,528,image-button-response,1505,5c87d68fe5bc060001ee8498,pictureLabels,wug,FL,tobdepwugbim,200125,1,low,tob,purple,exp,0
20,cjpw7y8c1k,528,image-button-response,857,5efdc12f5d69f622915a97a1,pictureLabels,wug,LF,tobdepwugbim,200125,1,low,tob,purple,exp,0
20,8k7ujzqkju,528,image-button-response,1075,5e8b2e599abd417d9512a877,pictureLabels,bim,LF,tobdepwugbim,200125,1,low,tob,purple,exp,0
20,pbt3n7l1gj,528,image-button-response,1703,5f63d70e4e460f141abccbc1,pictureLabels,wug,FL,tobdepwugbim,200125,1,low,tob,purple,exp,0
20,ek1v85vere,528,image-button-response,1130,5bdcd99964215c0001282b34,pictureLabels,wug,LF,tobdepwugbim,200125,1,low,tob,purple,exp,0
20,pusqm5jv5t,528,image-button-response,1980,5f477a85d919ec03cadfaddd,pictureLabels,wug,FL,tobdepwugbim,200125,1,low,tob,purple,exp,0
20,5g2fbehb04,528,image-button-response,3372,591a1f4800a5650001276188,pictureLabels,wug,FL,tobdepwugbim,200125,1,low,tob,purple,exp,0
20,j07stgzsr2,528,image-button-response,978,5d77c0eb4a666c0019561a80,pictureLabels,wug,FL,tobdepwugbim,200125,1,low,tob,purple,exp,0
20,xu8vthdm2k,528,image-button-response,901,5f85eb74d99dd00d735c107f,pictureLabels,wug,FL,tobdepwugbim,200125,1,low,tob,purple,exp,0
20,hc4uh4u04h,528,image-button-response,1411,5f5d6c3cbacc025bf0a03440,pictureLabels,bim,FL,tobdepwugbim,200125,1,low,tob,purple,exp,0
20,pmz1eqhg0u,528,image-button-response,1297,5f1bfe98441e2743f34fa16a,pictureLabels,wug,LF,tobdepwugbim,200125,1,low,tob,purple,exp,0
20,ol68ft1h8h,528,image-button-response,1486,5e5e17c97593e912e086c640,pictureLabels,wug,FL,tobdepwugbim,200125,1,low,tob,purple,exp,0
20,aj9q5o0gf2,528,image-button-response,2156,5b01e69aa496b300013d5b9b,pictureLabels,tob,FL,tobdepwugbim,200125,1,low,tob,purple,exp,1
20,85gul0f7qh,528,image-button-response,1017,5e4ab1b4ca765d000edebd15,pictureLabels,wug,LF,tobdepwugbim,200125,1,low,tob,purple,exp,0
20,ffbjr4pqha,528,image-button-response,2068,6009c27b9e9b700266fd52b5,pictureLabels,tob,FL,tobdepwugbim,200125,1,low,tob,purple,exp,1
20,71bdswcm9k,528,image-button-response,2400,5f591a5a9a49e211efead835,pictureLabels,dep,LF,tobdepwugbim,200125,1,low,tob,purple,exp,0
20,t2ubvm70lv,528,image-button-response,2324,5f858743256d25036d9fa693,pictureLabels,bim,LF,tobdepwugbim,200125,1,low,tob,purple,exp,0
20,g8ez0w4wvj,528,image-button-response,1056,5ec32348079dcc17451cac16,pictureLabels,wug,FL,tobdepwugbim,200125,1,low,tob,purple,exp,0
20,fggxxfkvfo,528,image-button-response,1665,5fbfb86436a5de31c546f37b,pictureLabels,wug,LF,tobdepwugbim,200125,1,low,tob,purple,exp,0
20,wod6ma11s3,528,image-button-response,1998,5f8228f40afba53534e6f583,pictureLabels,wug,FL,tobdepwugbim,200125,1,low,tob,purple,exp,0
21,y20qp8dcxo,530,image-button-response,2770,5f578563765fec223eb51594,pictureLabels,dep,LF,tobdepwugbim,210325,3,low,dep,red,exp,1
21,uyc3tp4v50,530,image-button-response,1298,6017d6a23bdebea5e9062e9d,pictureLabels,dep,FL,tobdepwugbim,210325,3,low,dep,red,exp,1
21,w2brxm7ay2,530,image-button-response,3139,5f60713e595007000a8e1da7,pictureLabels,dep,FL,tobdepwugbim,210325,3,low,dep,red,exp,1
21,xekfnorue1,530,image-button-response,940,5a11a7d0f2e3460001edbe35,pictureLabels,dep,FL,tobdepwugbim,210325,3,low,dep,red,exp,1
21,67zqwpqc3v,530,image-button-response,385,5ea3066769713007dfc5f1c3,pictureLabels,dep,LF,tobdepwugbim,210325,3,low,dep,red,exp,1
21,163k2z1uov,530,image-button-response,1487,5f11ccbc1a1a2c08b4a99efb,pictureLabels,wug,LF,tobdepwugbim,210325,3,low,dep,red,exp,0
21,ufb4y7bj2f,530,image-button-response,1324,5c2ce112f422870001fcab1f,pictureLabels,tob,FL,tobdepwugbim,210325,3,low,dep,red,exp,0
21,e9dxj57s6l,530,image-button-response,2319,5eb58476f88d4008fa483809,pictureLabels,tob,FL,tobdepwugbim,210325,3,low,dep,red,exp,0
21,hcnkaylepg,530,image-button-response,1428,5ce8ebe9c9379d0019898681,pictureLabels,tob,FL,tobdepwugbim,210325,3,low,dep,red,exp,0
21,kfhtlqkth4,530,image-button-response,1932,5edf8803c008532459792282,pictureLabels,tob,FL,tobdepwugbim,210325,3,low,dep,red,exp,0
21,psp3bt1vuy,530,image-button-response,810,5933d3c4ed2e9a0001d37ab4,pictureLabels,dep,FL,tobdepwugbim,210325,3,low,dep,red,exp,1
21,pusqm5jv5t,530,image-button-response,1288,5f477a85d919ec03cadfaddd,pictureLabels,tob,FL,tobdepwugbim,210325,3,low,dep,red,exp,0
21,ek1v85vere,530,image-button-response,1798,5bdcd99964215c0001282b34,pictureLabels,tob,LF,tobdepwugbim,210325,3,low,dep,red,exp,0
21,rl7z98kzoa,530,image-button-response,1110,5faa8121f8f5533a5c7f7a20,pictureLabels,dep,LF,tobdepwugbim,210325,3,low,dep,red,exp,1
21,8k7ujzqkju,530,image-button-response,1232,5e8b2e599abd417d9512a877,pictureLabels,wug,LF,tobdepwugbim,210325,3,low,dep,red,exp,0
21,q963ed16o4,530,image-button-response,1125,6006cf1238099707863fc7b4,pictureLabels,tob,FL,tobdepwugbim,210325,3,low,dep,red,exp,0
21,yj9gmh2tyv,530,image-button-response,2774,5e8dcc81e6686e035680594e,pictureLabels,tob,LF,tobdepwugbim,210325,3,low,dep,red,exp,0
21,o0xz7vf2yt,530,image-button-response,2869,5f2b196c0c610f4ec3eb5451,pictureLabels,tob,LF,tobdepwugbim,210325,3,low,dep,red,exp,0
21,71bdswcm9k,530,image-button-response,1579,5f591a5a9a49e211efead835,pictureLabels,tob,LF,tobdepwugbim,210325,3,low,dep,red,exp,0
21,xu8vthdm2k,530,image-button-response,1422,5f85eb74d99dd00d735c107f,pictureLabels,tob,FL,tobdepwugbim,210325,3,low,dep,red,exp,0
21,8706z1pc24,530,image-button-response,998,5c916456ec114b0016418dca,pictureLabels,dep,LF,tobdepwugbim,210325,3,low,dep,red,exp,1
21,ker7u0dhxt,530,image-button-response,1244,5c87d68fe5bc060001ee8498,pictureLabels,tob,FL,tobdepwugbim,210325,3,low,dep,red,exp,0
21,pmz1eqhg0u,530,image-button-response,1998,5f1bfe98441e2743f34fa16a,pictureLabels,tob,LF,tobdepwugbim,210325,3,low,dep,red,exp,0
21,t8qovvqyjq,530,image-button-response,1867,5f89cbc45b38f5016101011c,pictureLabels,dep,FL,tobdepwugbim,210325,3,low,dep,red,exp,1
21,4euvjgbfcc,530,image-button-response,2425,600355394a113e408f54cce5,pictureLabels,tob,LF,tobdepwugbim,210325,3,low,dep,red,exp,0
21,3mctt6t3lt,530,image-button-response,1063,5b3cb17b6779080001fe88c1,pictureLabels,dep,FL,tobdepwugbim,210325,3,low,dep,red,exp,1
21,ffbjr4pqha,530,image-button-response,525,6009c27b9e9b700266fd52b5,pictureLabels,wug,FL,tobdepwugbim,210325,3,low,dep,red,exp,0
21,85gul0f7qh,530,image-button-response,1867,5e4ab1b4ca765d000edebd15,pictureLabels,tob,LF,tobdepwugbim,210325,3,low,dep,red,exp,0
21,3a2waojqmg,530,image-button-response,1314,5e6a2c7c5b057b08e930e89d,pictureLabels,dep,FL,tobdepwugbim,210325,3,low,dep,red,exp,1
21,e4s1gf870t,530,image-button-response,867,5f677b748c011837e12cba61,pictureLabels,tob,FL,tobdepwugbim,210325,3,low,dep,red,exp,0
21,9q76krfydn,530,image-button-response,1131,5f3d9a9f10a5f219cfe0b404,pictureLabels,tob,FL,tobdepwugbim,210325,3,low,dep,red,exp,0
21,qfloq0vkd1,530,image-button-response,2348,5acb896da3ba7a0001b4e99f,pictureLabels,tob,LF,tobdepwugbim,210325,3,low,dep,red,exp,0
21,1gynr5ywqp,530,image-button-response,1139,5db1bba0e20f58000b8717f6,pictureLabels,dep,FL,tobdepwugbim,210325,3,low,dep,red,exp,1
21,aj9q5o0gf2,530,image-button-response,1918,5b01e69aa496b300013d5b9b,pictureLabels,dep,FL,tobdepwugbim,210325,3,low,dep,red,exp,1
21,ym6cxam2f3,530,image-button-response,1445,5ee87dba82ed8101333c7744,pictureLabels,tob,FL,tobdepwugbim,210325,3,low,dep,red,exp,0
21,jlov66vr8s,530,image-button-response,2603,5fc65eb000091528ea745f65,pictureLabels,tob,FL,tobdepwugbim,210325,3,low,dep,red,exp,0
21,cjpw7y8c1k,530,image-button-response,971,5efdc12f5d69f622915a97a1,pictureLabels,tob,LF,tobdepwugbim,210325,3,low,dep,red,exp,0
21,wod6ma11s3,530,image-button-response,1290,5f8228f40afba53534e6f583,pictureLabels,wug,FL,tobdepwugbim,210325,3,low,dep,red,exp,0
21,t2ubvm70lv,530,image-button-response,3133,5f858743256d25036d9fa693,pictureLabels,tob,LF,tobdepwugbim,210325,3,low,dep,red,exp,0
21,pbt3n7l1gj,530,image-button-response,1761,5f63d70e4e460f141abccbc1,pictureLabels,dep,FL,tobdepwugbim,210325,3,low,dep,red,exp,1
21,o7w146d4yj,530,image-button-response,1227,5f343de4d0c07630b7f90b92,pictureLabels,tob,LF,tobdepwugbim,210325,3,low,dep,red,exp,0
21,mvqchu948c,530,image-button-response,1928,5b421b9ac2e3810001763252,pictureLabels,tob,FL,tobdepwugbim,210325,3,low,dep,red,exp,0
21,g8ez0w4wvj,530,image-button-response,1810,5ec32348079dcc17451cac16,pictureLabels,tob,FL,tobdepwugbim,210325,3,low,dep,red,exp,0
21,1e9hhup9lf,530,image-button-response,1078,5cbc680bfb8dfe0001839ba2,pictureLabels,wug,LF,tobdepwugbim,210325,3,low,dep,red,exp,0
21,ol68ft1h8h,530,image-button-response,1936,5e5e17c97593e912e086c640,pictureLabels,tob,FL,tobdepwugbim,210325,3,low,dep,red,exp,0
21,fggxxfkvfo,530,image-button-response,2799,5fbfb86436a5de31c546f37b,pictureLabels,dep,LF,tobdepwugbim,210325,3,low,dep,red,exp,1
21,j07stgzsr2,530,image-button-response,NA,5d77c0eb4a666c0019561a80,pictureLabels,NA,FL,tobdepwugbim,210325,3,low,dep,red,exp,NA
21,hc4uh4u04h,530,image-button-response,1210,5f5d6c3cbacc025bf0a03440,pictureLabels,bim,FL,tobdepwugbim,210325,3,low,dep,red,exp,0
21,5g2fbehb04,530,image-button-response,NA,591a1f4800a5650001276188,pictureLabels,NA,FL,tobdepwugbim,210325,3,low,dep,red,exp,NA
22,xekfnorue1,532,image-button-response,1430,5a11a7d0f2e3460001edbe35,pictureLabels,tob,FL,tobdepwugbim,220225,2,low,wug,blue,exp,0
22,o0xz7vf2yt,532,image-button-response,2140,5f2b196c0c610f4ec3eb5451,pictureLabels,dep,LF,tobdepwugbim,220225,2,low,wug,blue,exp,0
22,q963ed16o4,532,image-button-response,1527,6006cf1238099707863fc7b4,pictureLabels,dep,FL,tobdepwugbim,220225,2,low,wug,blue,exp,0
22,ker7u0dhxt,532,image-button-response,991,5c87d68fe5bc060001ee8498,pictureLabels,dep,FL,tobdepwugbim,220225,2,low,wug,blue,exp,0
22,pusqm5jv5t,532,image-button-response,1467,5f477a85d919ec03cadfaddd,pictureLabels,dep,FL,tobdepwugbim,220225,2,low,wug,blue,exp,0
22,3mctt6t3lt,532,image-button-response,1222,5b3cb17b6779080001fe88c1,pictureLabels,dep,FL,tobdepwugbim,220225,2,low,wug,blue,exp,0
22,psp3bt1vuy,532,image-button-response,1559,5933d3c4ed2e9a0001d37ab4,pictureLabels,tob,FL,tobdepwugbim,220225,2,low,wug,blue,exp,0
22,4euvjgbfcc,532,image-button-response,1759,600355394a113e408f54cce5,pictureLabels,wug,LF,tobdepwugbim,220225,2,low,wug,blue,exp,1
22,9q76krfydn,532,image-button-response,1717,5f3d9a9f10a5f219cfe0b404,pictureLabels,wug,FL,tobdepwugbim,220225,2,low,wug,blue,exp,1
22,w2brxm7ay2,532,image-button-response,2860,5f60713e595007000a8e1da7,pictureLabels,tob,FL,tobdepwugbim,220225,2,low,wug,blue,exp,0
22,pbt3n7l1gj,532,image-button-response,1889,5f63d70e4e460f141abccbc1,pictureLabels,tob,FL,tobdepwugbim,220225,2,low,wug,blue,exp,0
22,e4s1gf870t,532,image-button-response,811,5f677b748c011837e12cba61,pictureLabels,bim,FL,tobdepwugbim,220225,2,low,wug,blue,exp,0
22,ym6cxam2f3,532,image-button-response,954,5ee87dba82ed8101333c7744,pictureLabels,dep,FL,tobdepwugbim,220225,2,low,wug,blue,exp,0
22,y20qp8dcxo,532,image-button-response,3089,5f578563765fec223eb51594,pictureLabels,wug,LF,tobdepwugbim,220225,2,low,wug,blue,exp,1
22,kfhtlqkth4,532,image-button-response,2744,5edf8803c008532459792282,pictureLabels,bim,FL,tobdepwugbim,220225,2,low,wug,blue,exp,0
22,cjpw7y8c1k,532,image-button-response,995,5efdc12f5d69f622915a97a1,pictureLabels,dep,LF,tobdepwugbim,220225,2,low,wug,blue,exp,0
22,pmz1eqhg0u,532,image-button-response,1544,5f1bfe98441e2743f34fa16a,pictureLabels,dep,LF,tobdepwugbim,220225,2,low,wug,blue,exp,0
22,ek1v85vere,532,image-button-response,1082,5bdcd99964215c0001282b34,pictureLabels,wug,LF,tobdepwugbim,220225,2,low,wug,blue,exp,1
22,rl7z98kzoa,532,image-button-response,2033,5faa8121f8f5533a5c7f7a20,pictureLabels,wug,LF,tobdepwugbim,220225,2,low,wug,blue,exp,1
22,mvqchu948c,532,image-button-response,2449,5b421b9ac2e3810001763252,pictureLabels,bim,FL,tobdepwugbim,220225,2,low,wug,blue,exp,0
22,e9dxj57s6l,532,image-button-response,2288,5eb58476f88d4008fa483809,pictureLabels,bim,FL,tobdepwugbim,220225,2,low,wug,blue,exp,0
22,yj9gmh2tyv,532,image-button-response,3349,5e8dcc81e6686e035680594e,pictureLabels,wug,LF,tobdepwugbim,220225,2,low,wug,blue,exp,1
22,71bdswcm9k,532,image-button-response,1644,5f591a5a9a49e211efead835,pictureLabels,wug,LF,tobdepwugbim,220225,2,low,wug,blue,exp,1
22,ol68ft1h8h,532,image-button-response,2945,5e5e17c97593e912e086c640,pictureLabels,wug,FL,tobdepwugbim,220225,2,low,wug,blue,exp,1
22,xu8vthdm2k,532,image-button-response,1099,5f85eb74d99dd00d735c107f,pictureLabels,dep,FL,tobdepwugbim,220225,2,low,wug,blue,exp,0
22,g8ez0w4wvj,532,image-button-response,1262,5ec32348079dcc17451cac16,pictureLabels,bim,FL,tobdepwugbim,220225,2,low,wug,blue,exp,0
22,jlov66vr8s,532,image-button-response,2056,5fc65eb000091528ea745f65,pictureLabels,dep,FL,tobdepwugbim,220225,2,low,wug,blue,exp,0
22,ffbjr4pqha,532,image-button-response,1198,6009c27b9e9b700266fd52b5,pictureLabels,tob,FL,tobdepwugbim,220225,2,low,wug,blue,exp,0
22,hc4uh4u04h,532,image-button-response,1163,5f5d6c3cbacc025bf0a03440,pictureLabels,bim,FL,tobdepwugbim,220225,2,low,wug,blue,exp,0
22,aj9q5o0gf2,532,image-button-response,2455,5b01e69aa496b300013d5b9b,pictureLabels,bim,FL,tobdepwugbim,220225,2,low,wug,blue,exp,0
22,t8qovvqyjq,532,image-button-response,1102,5f89cbc45b38f5016101011c,pictureLabels,wug,FL,tobdepwugbim,220225,2,low,wug,blue,exp,1
22,qfloq0vkd1,532,image-button-response,1213,5acb896da3ba7a0001b4e99f,pictureLabels,wug,LF,tobdepwugbim,220225,2,low,wug,blue,exp,1
22,ufb4y7bj2f,532,image-button-response,1708,5c2ce112f422870001fcab1f,pictureLabels,dep,FL,tobdepwugbim,220225,2,low,wug,blue,exp,0
22,8k7ujzqkju,532,image-button-response,1590,5e8b2e599abd417d9512a877,pictureLabels,dep,LF,tobdepwugbim,220225,2,low,wug,blue,exp,0
22,67zqwpqc3v,532,image-button-response,407,5ea3066769713007dfc5f1c3,pictureLabels,wug,LF,tobdepwugbim,220225,2,low,wug,blue,exp,1
22,1gynr5ywqp,532,image-button-response,1257,5db1bba0e20f58000b8717f6,pictureLabels,bim,FL,tobdepwugbim,220225,2,low,wug,blue,exp,0
22,8706z1pc24,532,image-button-response,1256,5c916456ec114b0016418dca,pictureLabels,tob,LF,tobdepwugbim,220225,2,low,wug,blue,exp,0
22,163k2z1uov,532,image-button-response,1009,5f11ccbc1a1a2c08b4a99efb,pictureLabels,dep,LF,tobdepwugbim,220225,2,low,wug,blue,exp,0
22,hcnkaylepg,532,image-button-response,NA,5ce8ebe9c9379d0019898681,pictureLabels,NA,FL,tobdepwugbim,220225,2,low,wug,blue,exp,NA
22,t2ubvm70lv,532,image-button-response,NA,5f858743256d25036d9fa693,pictureLabels,NA,LF,tobdepwugbim,220225,2,low,wug,blue,exp,NA
22,fggxxfkvfo,532,image-button-response,1811,5fbfb86436a5de31c546f37b,pictureLabels,dep,LF,tobdepwugbim,220225,2,low,wug,blue,exp,0
22,3a2waojqmg,532,image-button-response,2494,5e6a2c7c5b057b08e930e89d,pictureLabels,bim,FL,tobdepwugbim,220225,2,low,wug,blue,exp,0
22,1e9hhup9lf,532,image-button-response,1574,5cbc680bfb8dfe0001839ba2,pictureLabels,dep,LF,tobdepwugbim,220225,2,low,wug,blue,exp,0
22,wod6ma11s3,532,image-button-response,1992,5f8228f40afba53534e6f583,pictureLabels,wug,FL,tobdepwugbim,220225,2,low,wug,blue,exp,1
22,uyc3tp4v50,532,image-button-response,1052,6017d6a23bdebea5e9062e9d,pictureLabels,tob,FL,tobdepwugbim,220225,2,low,wug,blue,exp,0
22,5g2fbehb04,532,image-button-response,3341,591a1f4800a5650001276188,pictureLabels,tob,FL,tobdepwugbim,220225,2,low,wug,blue,exp,0
22,85gul0f7qh,532,image-button-response,1843,5e4ab1b4ca765d000edebd15,pictureLabels,tob,LF,tobdepwugbim,220225,2,low,wug,blue,exp,0
22,j07stgzsr2,532,image-button-response,2031,5d77c0eb4a666c0019561a80,pictureLabels,dep,FL,tobdepwugbim,220225,2,low,wug,blue,exp,0
22,o7w146d4yj,532,image-button-response,929,5f343de4d0c07630b7f90b92,pictureLabels,wug,LF,tobdepwugbim,220225,2,low,wug,blue,exp,1
23,xekfnorue1,534,image-button-response,1195,5a11a7d0f2e3460001edbe35,pictureLabels,dep,FL,tobdepwugbim,230325,3,low,dep,red,exp,1
23,psp3bt1vuy,534,image-button-response,1373,5933d3c4ed2e9a0001d37ab4,pictureLabels,dep,FL,tobdepwugbim,230325,3,low,dep,red,exp,1
23,163k2z1uov,534,image-button-response,NA,5f11ccbc1a1a2c08b4a99efb,pictureLabels,NA,LF,tobdepwugbim,230325,3,low,dep,red,exp,NA
23,pusqm5jv5t,534,image-button-response,1791,5f477a85d919ec03cadfaddd,pictureLabels,dep,FL,tobdepwugbim,230325,3,low,dep,red,exp,1
23,kfhtlqkth4,534,image-button-response,1690,5edf8803c008532459792282,pictureLabels,tob,FL,tobdepwugbim,230325,3,low,dep,red,exp,0
