task,subjID,display,trial,fribblePresented,resp,labelPresented,frequency,rt,trialType,list,expeType
contingency,3491839,task,1,20375,-87,wug,h,5187.205,match,1,pilot1
contingency,3491839,task,2,11025,81,dep,l,2897.71,match,1,pilot1
contingency,3491839,task,3,21125,37,dep,l,3329.8,mismatch-type1,1,pilot1
contingency,3491839,task,4,22475,-34,wug,h,2998.58,match,1,pilot1
contingency,3491839,task,5,13375,-84,dep,h,3325.12,match,1,pilot1
contingency,3491839,task,6,21675,90,tob,h,4563.47,mismatch-type1,1,pilot1
contingency,3491839,task,7,31525,100,wug,l,3436.43,mismatch-type1,1,pilot1
contingency,3491839,task,8,30875,49,tob,h,3146.895,match,1,pilot1
contingency,3491839,task,9,11725,-84,dep,l,2938.18,match,1,pilot1
contingency,3491839,task,10,30975,92,dep,h,2686.84,mismatch-type1,1,pilot1
contingency,3491839,task,11,20825,13,dep,l,3457.885,mismatch-type1,1,pilot1
contingency,3491839,task,12,30225,100,wug,l,3782.425,mismatch-type1,1,pilot1
contingency,3491839,task,13,11875,62,dep,h,3298.76,match,1,pilot1
contingency,3491839,task,14,12075,-100,wug,h,2849.48,mismatch-type1,1,pilot1
contingency,3491839,task,15,20775,-70,wug,h,3195.935,match,1,pilot1
contingency,3491839,task,16,30325,100,wug,l,2498.65,mismatch-type1,1,pilot1
contingency,3491839,task,17,30725,-100,tob,l,3025.555,match,1,pilot1
contingency,3491839,task,18,11425,32,tob,l,2983.085,mismatch-type1,1,pilot1
contingency,3491839,task,19,20325,78,dep,l,3208.745,mismatch-type1,1,pilot1
contingency,3491839,task,20,20625,-100,wug,l,2555.455,match,1,pilot1
contingency,3491839,task,21,21575,-62,wug,h,3305.84,match,1,pilot1
contingency,3491839,task,22,10175,54,dep,h,4706.115,match,1,pilot1
contingency,3491839,task,23,22325,-21,dep,l,3051.385,mismatch-type1,1,pilot1
contingency,3491839,task,24,32575,-43,dep,h,2955.93,mismatch-type1,1,pilot1
contingency,3491839,task,25,11375,-96,wug,h,3854.7,mismatch-type1,1,pilot1
contingency,3491839,task,26,33275,53,dep,h,2885.835,mismatch-type1,1,pilot1
contingency,3491839,task,27,12275,77,dep,h,3108.135,match,1,pilot1
contingency,3491839,task,28,31425,-100,tob,l,2568.665,match,1,pilot1
contingency,3491839,task,29,21975,45,tob,h,2953.8,mismatch-type1,1,pilot1
contingency,3491839,task,30,11625,83,tob,l,4037.83,mismatch-type1,1,pilot1
contingency,3491839,task,31,22125,-100,wug,l,3082.74,match,1,pilot1
contingency,3491839,task,32,11325,72,tob,l,3017.72,mismatch-type1,1,pilot1
contingency,3491839,task,33,30825,-100,tob,l,3071.305,match,1,pilot1
contingency,3491839,task,34,12875,-50,wug,h,2961.1,mismatch-type1,1,pilot1
contingency,3491839,task,35,32775,52,dep,h,2354.16,mismatch-type1,1,pilot1
contingency,3491839,task,36,23175,65,tob,h,5987.345,mismatch-type1,1,pilot1
contingency,3491839,task,37,20425,-100,wug,l,2455.48,match,1,pilot1
contingency,3491839,task,38,20925,-100,wug,l,2650.58,match,1,pilot1
contingency,3491839,task,39,31475,61,tob,h,2577.465,match,1,pilot1
contingency,3491839,task,40,12325,89,tob,l,2868.6,mismatch-type1,1,pilot1
contingency,3491839,task,41,32025,100,wug,l,2923.97,mismatch-type1,1,pilot1
contingency,3491839,task,42,12225,37,dep,l,3063.96,match,1,pilot1
contingency,3491839,task,43,12125,55,dep,l,2989.22,match,1,pilot1
contingency,3491839,task,44,22375,-46,wug,h,3013.155,match,1,pilot1
contingency,3491839,task,45,31575,37,tob,h,3481.25,match,1,pilot1
contingency,3491839,task,46,10975,74,dep,h,3185.97,match,1,pilot1
contingency,3491839,task,47,32275,79,tob,h,2738.575,match,1,pilot1
contingency,3491839,task,48,10675,-100,wug,h,2823.395,mismatch-type1,1,pilot1
contingency,3491839,task,49,32525,100,wug,l,3110.77,mismatch-type1,1,pilot1
contingency,3491839,task,50,21025,-100,wug,l,5222.565,match,1,pilot1
contingency,3491839,task,51,10925,73,tob,l,2741.705,mismatch-type1,1,pilot1
contingency,3491839,task,52,33075,31,dep,h,2241.695,mismatch-type1,1,pilot1
contingency,3491839,task,53,10625,41,dep,l,2496.755,match,1,pilot1
contingency,3491839,task,54,32225,-95,tob,l,3259.275,match,1,pilot1
contingency,3491839,task,55,22225,81,dep,l,3632.25,mismatch-type1,1,pilot1
contingency,3491839,task,56,11975,-94,wug,h,3007.515,mismatch-type1,1,pilot1
contingency,3491839,task,57,30275,-70,tob,h,2649.805,match,1,pilot1
contingency,3491839,task,58,22175,-59,tob,h,3482.515,mismatch-type1,1,pilot1
contingency,3491839,task,59,31725,-100,tob,l,3137.49,match,1,pilot1
contingency,3491839,task,60,20575,48,tob,h,5589.075,mismatch-type1,1,pilot1
contingency,3481518,task,1,20375,93,wug,h,3008.415,match,1,pilot1
contingency,3481518,task,2,11025,95,dep,l,2822.52,match,1,pilot1
contingency,3481518,task,3,21125,-99,dep,l,2581.805,mismatch-type1,1,pilot1
contingency,3481518,task,4,22475,88,wug,h,2818.725,match,1,pilot1
contingency,3481518,task,5,13375,98,dep,h,3530.51,match,1,pilot1
contingency,3481518,task,6,21675,-96,tob,h,2178,mismatch-type1,1,pilot1
contingency,3481518,task,7,31525,-93,wug,l,3102.025,mismatch-type1,1,pilot1
contingency,3481518,task,8,30875,94,tob,h,2558.185,match,1,pilot1
contingency,3481518,task,9,11725,55,dep,l,5644.59,match,1,pilot1
contingency,3481518,task,10,30975,-90,dep,h,5068.36,mismatch-type1,1,pilot1
contingency,3481518,task,11,20825,-99,dep,l,3861.43,mismatch-type1,1,pilot1
contingency,3481518,task,12,30225,-87,wug,l,2617.485,mismatch-type1,1,pilot1
contingency,3481518,task,13,11875,95,dep,h,3837.44,match,1,pilot1
contingency,3481518,task,14,12075,-94,wug,h,5224.98,mismatch-type1,1,pilot1
contingency,3481518,task,15,20775,95,wug,h,1894.98,match,1,pilot1
contingency,3481518,task,16,30325,-97,wug,l,2337.375,mismatch-type1,1,pilot1
contingency,3481518,task,17,30725,96,tob,l,3095.5,match,1,pilot1
contingency,3481518,task,18,11425,-96,tob,l,2858.47,mismatch-type1,1,pilot1
contingency,3481518,task,19,20325,-88,dep,l,3901.45,mismatch-type1,1,pilot1
contingency,3481518,task,20,20625,98,wug,l,4444.825,match,1,pilot1
contingency,3481518,task,21,21575,92,wug,h,2499.46,match,1,pilot1
contingency,3481518,task,22,10175,93,dep,h,3968.63,match,1,pilot1
contingency,3481518,task,23,22325,-93,dep,l,1955.525,mismatch-type1,1,pilot1
contingency,3481518,task,24,32575,-75,dep,h,3714.285,mismatch-type1,1,pilot1
contingency,3481518,task,25,11375,-99,wug,h,5748.84,mismatch-type1,1,pilot1
contingency,3481518,task,26,33275,-98,dep,h,5770.44,mismatch-type1,1,pilot1
contingency,3481518,task,27,12275,96,dep,h,2176.36,match,1,pilot1
contingency,3481518,task,28,31425,96,tob,l,3311.405,match,1,pilot1
contingency,3481518,task,29,21975,-95,tob,h,2771.21,mismatch-type1,1,pilot1
contingency,3481518,task,30,11625,-91,tob,l,3096.41,mismatch-type1,1,pilot1
contingency,3481518,task,31,22125,83,wug,l,3488.84,match,1,pilot1
contingency,3481518,task,32,11325,-93,tob,l,4273.81,mismatch-type1,1,pilot1
contingency,3481518,task,33,30825,94,tob,l,2391.25,match,1,pilot1
contingency,3481518,task,34,12875,-89,wug,h,2475.93,mismatch-type1,1,pilot1
contingency,3481518,task,35,32775,-99,dep,h,3824.165,mismatch-type1,1,pilot1
contingency,3481518,task,36,23175,-83,tob,h,4054.32,mismatch-type1,1,pilot1
contingency,3481518,task,37,20425,90,wug,l,3923.825,match,1,pilot1
contingency,3481518,task,38,20925,62,wug,l,2519.87,match,1,pilot1
contingency,3481518,task,39,31475,97,tob,h,4364.155,match,1,pilot1
contingency,3481518,task,40,12325,-70,tob,l,3119.975,mismatch-type1,1,pilot1
contingency,3481518,task,41,32025,-99,wug,l,4480.01,mismatch-type1,1,pilot1
contingency,3481518,task,42,12225,98,dep,l,4226.82,match,1,pilot1
contingency,3481518,task,43,12125,94,dep,l,2091.42,match,1,pilot1
contingency,3481518,task,44,22375,91,wug,h,3511.6,match,1,pilot1
contingency,3481518,task,45,31575,98,tob,h,2104.3,match,1,pilot1
contingency,3481518,task,46,10975,75,dep,h,6295.42,match,1,pilot1
contingency,3481518,task,47,32275,95,tob,h,2477.85,match,1,pilot1
contingency,3481518,task,48,10675,-91,wug,h,2478.395,mismatch-type1,1,pilot1
contingency,3481518,task,49,32525,-93,wug,l,4421.26,mismatch-type1,1,pilot1
contingency,3481518,task,50,21025,96,wug,l,6887.91,match,1,pilot1
contingency,3481518,task,51,10925,-90,tob,l,3659.81,mismatch-type1,1,pilot1
contingency,3481518,task,52,33075,-88,dep,h,3222.66,mismatch-type1,1,pilot1
contingency,3481518,task,53,10625,98,dep,l,3275.705,match,1,pilot1
contingency,3481518,task,54,32225,56,tob,l,3174.41,match,1,pilot1
contingency,3481518,task,55,22225,-78,dep,l,4928.36,mismatch-type1,1,pilot1
contingency,3481518,task,56,11975,-60,wug,h,3044.925,mismatch-type1,1,pilot1
contingency,3481518,task,57,30275,79,tob,h,1956.52,match,1,pilot1
contingency,3481518,task,58,22175,-92,tob,h,3359.97,mismatch-type1,1,pilot1
contingency,3481518,task,59,31725,95,tob,l,3255.42,match,1,pilot1
contingency,3481518,task,60,20575,-97,tob,h,3000.325,mismatch-type1,1,pilot1
contingency,3473048,task,1,20375,50,wug,h,5659.4,match,1,pilot1
contingency,3473048,task,2,11025,-63,dep,l,7010.295,match,1,pilot1
contingency,3473048,task,3,21125,100,dep,l,3244.84,mismatch-type1,1,pilot1
contingency,3473048,task,4,22475,63,wug,h,4203.875,match,1,pilot1
contingency,3473048,task,5,13375,100,dep,h,2923.35,match,1,pilot1
contingency,3473048,task,6,21675,-100,tob,h,3084.285,mismatch-type1,1,pilot1
contingency,3473048,task,7,31525,100,wug,l,5150.52,mismatch-type1,1,pilot1
contingency,3473048,task,8,30875,100,tob,h,2787.085,match,1,pilot1
contingency,3473048,task,9,11725,-100,dep,l,4195.595,match,1,pilot1
contingency,3473048,task,10,30975,-100,dep,h,3526.795,mismatch-type1,1,pilot1
contingency,3473048,task,11,20825,52,dep,l,3638.57,mismatch-type1,1,pilot1
contingency,3473048,task,12,30225,35,wug,l,3783.065,mismatch-type1,1,pilot1
contingency,3473048,task,13,11875,100,dep,h,2625.875,match,1,pilot1
contingency,3473048,task,14,12075,100,wug,h,2890.69,mismatch-type1,1,pilot1
contingency,3473048,task,15,20775,51,wug,h,3385.33,match,1,pilot1
contingency,3473048,task,16,30325,33,wug,l,4532.3,mismatch-type1,1,pilot1
contingency,3473048,task,17,30725,-100,tob,l,2927.5,match,1,pilot1
contingency,3473048,task,18,11425,100,tob,l,3324.935,mismatch-type1,1,pilot1
contingency,3473048,task,19,20325,54,dep,l,4435.725,mismatch-type1,1,pilot1
contingency,3473048,task,20,20625,-100,wug,l,4722.78,match,1,pilot1
contingency,3473048,task,21,21575,56,wug,h,3657.755,match,1,pilot1
contingency,3473048,task,22,10175,100,dep,h,2881.445,match,1,pilot1
contingency,3473048,task,23,22325,53,dep,l,3265.645,mismatch-type1,1,pilot1
contingency,3473048,task,24,32575,-100,dep,h,3167.395,mismatch-type1,1,pilot1
contingency,3473048,task,25,11375,-100,wug,h,3938.88,mismatch-type1,1,pilot1
contingency,3473048,task,26,33275,-100,dep,h,3901.155,mismatch-type1,1,pilot1
contingency,3473048,task,27,12275,100,dep,h,2581.975,match,1,pilot1
contingency,3473048,task,28,31425,-100,tob,l,3427.99,match,1,pilot1
contingency,3473048,task,29,21975,-100,tob,h,4427.67,mismatch-type1,1,pilot1
contingency,3473048,task,30,11625,100,tob,l,4256.07,mismatch-type1,1,pilot1
contingency,3473048,task,31,22125,-58,wug,l,6532.92,match,1,pilot1
contingency,3473048,task,32,11325,100,tob,l,4309.39,mismatch-type1,1,pilot1
contingency,3473048,task,33,30825,-100,tob,l,5654.415,match,1,pilot1
contingency,3473048,task,34,12875,-97,wug,h,4330.55,mismatch-type1,1,pilot1
contingency,3473048,task,35,32775,-100,dep,h,3407.05,mismatch-type1,1,pilot1
contingency,3473048,task,36,23175,-100,tob,h,3537.38,mismatch-type1,1,pilot1
contingency,3473048,task,37,20425,-59,wug,l,4241.45,match,1,pilot1
contingency,3473048,task,38,20925,-64,wug,l,4264.19,match,1,pilot1
contingency,3473048,task,39,31475,100,tob,h,2687.495,match,1,pilot1
contingency,3473048,task,40,12325,53,tob,l,4388.21,mismatch-type1,1,pilot1
contingency,3473048,task,41,32025,100,wug,l,5052.31,mismatch-type1,1,pilot1
contingency,3473048,task,42,12225,-100,dep,l,4558.085,match,1,pilot1
contingency,3473048,task,43,12125,-100,dep,l,3502.435,match,1,pilot1
contingency,3473048,task,44,22375,60,wug,h,4758.825,match,1,pilot1
contingency,3473048,task,45,31575,100,tob,h,2977.43,match,1,pilot1
contingency,3473048,task,46,10975,100,dep,h,3857.41,match,1,pilot1
contingency,3473048,task,47,32275,100,tob,h,4506.06,match,1,pilot1
contingency,3473048,task,48,10675,-100,wug,h,3388.765,mismatch-type1,1,pilot1
contingency,3473048,task,49,32525,68,wug,l,3270.885,mismatch-type1,1,pilot1
contingency,3473048,task,50,21025,-61,wug,l,4684.895,match,1,pilot1
contingency,3473048,task,51,10925,53,tob,l,4792.905,mismatch-type1,1,pilot1
contingency,3473048,task,52,33075,-100,dep,h,2824.935,mismatch-type1,1,pilot1
contingency,3473048,task,53,10625,-100,dep,l,3201.61,match,1,pilot1
contingency,3473048,task,54,32225,-100,tob,l,5416.8,match,1,pilot1
contingency,3473048,task,55,22225,56,dep,l,3773.05,mismatch-type1,1,pilot1
contingency,3473048,task,56,11975,-100,wug,h,2723.92,mismatch-type1,1,pilot1
contingency,3473048,task,57,30275,100,tob,h,2338.805,match,1,pilot1
contingency,3473048,task,58,22175,-100,tob,h,4546.7,mismatch-type1,1,pilot1
contingency,3473048,task,59,31725,-100,tob,l,2744.56,match,1,pilot1
contingency,3473048,task,60,20575,-100,tob,h,3645.51,mismatch-type1,1,pilot1
contingency,3467073,task,1,20375,100,wug,h,4619.75,match,1,pilot1
contingency,3467073,task,2,11025,-39,dep,l,3510.94,match,1,pilot1
contingency,3467073,task,3,21125,2,dep,l,8493.017,mismatch-type1,1,pilot1
contingency,3467073,task,4,22475,100,wug,h,4457.63,match,1,pilot1
contingency,3467073,task,5,13375,22,dep,h,3117.31,match,1,pilot1
contingency,3467073,task,6,21675,-68,tob,h,3443.925,mismatch-type1,1,pilot1
contingency,3467073,task,7,31525,99,wug,l,4681.32,mismatch-type1,1,pilot1
contingency,3467073,task,8,30875,60,tob,h,3555.255,match,1,pilot1
contingency,3467073,task,9,11725,-59,dep,l,3876.22,match,1,pilot1
contingency,3467073,task,10,30975,-37,dep,h,3632.83,mismatch-type1,1,pilot1
contingency,3467073,task,11,20825,30,dep,l,2622.865,mismatch-type1,1,pilot1
contingency,3467073,task,12,30225,88,wug,l,2633.31,mismatch-type1,1,pilot1
contingency,3467073,task,13,11875,44,dep,h,2517.545,match,1,pilot1
contingency,3467073,task,14,12075,-70,wug,h,3209.535,mismatch-type1,1,pilot1
contingency,3467073,task,15,20775,100,wug,h,2823.58,match,1,pilot1
contingency,3467073,task,16,30325,100,wug,l,2651.155,mismatch-type1,1,pilot1
contingency,3467073,task,17,30725,-91,tob,l,3791.565,match,1,pilot1
contingency,3467073,task,18,11425,63,tob,l,2461.375,mismatch-type1,1,pilot1
contingency,3467073,task,19,20325,40,dep,l,3334.32,mismatch-type1,1,pilot1
contingency,3467073,task,20,20625,-90,wug,l,3114.71,match,1,pilot1
contingency,3467073,task,21,21575,96,wug,h,2772.72,match,1,pilot1
contingency,3467073,task,22,10175,-52,dep,h,2278.765,match,1,pilot1
contingency,3467073,task,23,22325,32,dep,l,2881.92,mismatch-type1,1,pilot1
contingency,3467073,task,24,32575,-40,dep,h,2149.285,mismatch-type1,1,pilot1
contingency,3467073,task,25,11375,-95,wug,h,4966.085,mismatch-type1,1,pilot1
contingency,3467073,task,26,33275,17,dep,h,3491.44,mismatch-type1,1,pilot1
contingency,3467073,task,27,12275,25,dep,h,5213.785,match,1,pilot1
contingency,3467073,task,28,31425,-53,tob,l,3095.35,match,1,pilot1
contingency,3467073,task,29,21975,-66,tob,h,2649.265,mismatch-type1,1,pilot1
contingency,3467073,task,30,11625,18,tob,l,2416.585,mismatch-type1,1,pilot1
contingency,3467073,task,31,22125,-76,wug,l,2714.555,match,1,pilot1
contingency,3467073,task,32,11325,21,tob,l,2786.3,mismatch-type1,1,pilot1
contingency,3467073,task,33,30825,-90,tob,l,2911.72,match,1,pilot1
contingency,3467073,task,34,12875,-75,wug,h,3665.3,mismatch-type1,1,pilot1
contingency,3467073,task,35,32775,29,dep,h,2389.455,mismatch-type1,1,pilot1
contingency,3467073,task,36,23175,-71,tob,h,2542.17,mismatch-type1,1,pilot1
contingency,3467073,task,37,20425,-75,wug,l,2678.88,match,1,pilot1
contingency,3467073,task,38,20925,-97,wug,l,2388.64,match,1,pilot1
contingency,3467073,task,39,31475,19,tob,h,2537.705,match,1,pilot1
contingency,3467073,task,40,12325,56,tob,l,2126.28,mismatch-type1,1,pilot1
contingency,3467073,task,41,32025,100,wug,l,3471.035,mismatch-type1,1,pilot1
contingency,3467073,task,42,12225,-64,dep,l,3206.285,match,1,pilot1
contingency,3467073,task,43,12125,-66,dep,l,3591.89,match,1,pilot1
contingency,3467073,task,44,22375,100,wug,h,2942.62,match,1,pilot1
contingency,3467073,task,45,31575,-34,tob,h,2350.295,match,1,pilot1
contingency,3467073,task,46,10975,25,dep,h,4478.355,match,1,pilot1
contingency,3467073,task,47,32275,49,tob,h,2048.365,match,1,pilot1
contingency,3467073,task,48,10675,-26,wug,h,3242.6,mismatch-type1,1,pilot1
contingency,3467073,task,49,32525,98,wug,l,4613.86,mismatch-type1,1,pilot1
contingency,3467073,task,50,21025,-87,wug,l,2725.015,match,1,pilot1
contingency,3467073,task,51,10925,35,tob,l,2233.905,mismatch-type1,1,pilot1
contingency,3467073,task,52,33075,35,dep,h,3627.475,mismatch-type1,1,pilot1
contingency,3467073,task,53,10625,19,dep,l,1638.685,match,1,pilot1
contingency,3467073,task,54,32225,-83,tob,l,2402.51,match,1,pilot1
contingency,3467073,task,55,22225,49,dep,l,2941.125,mismatch-type1,1,pilot1
contingency,3467073,task,56,11975,-86,wug,h,3861.635,mismatch-type1,1,pilot1
contingency,3467073,task,57,30275,50,tob,h,2231.245,match,1,pilot1
contingency,3467073,task,58,22175,-86,tob,h,3439.25,mismatch-type1,1,pilot1
contingency,3467073,task,59,31725,-96,tob,l,2709.765,match,1,pilot1
contingency,3467073,task,60,20575,-98,tob,h,2745.08,mismatch-type1,1,pilot1
contingency,3430836,task,1,20375,100,wug,h,4591.81,match,1,pilot1
contingency,3430836,task,2,11025,34,dep,l,6283.665,match,1,pilot1
contingency,3430836,task,3,21125,-58,dep,l,5836.57,mismatch-type1,1,pilot1
contingency,3430836,task,4,22475,100,wug,h,3817.45,match,1,pilot1
contingency,3430836,task,5,13375,100,dep,h,3703.845,match,1,pilot1
contingency,3430836,task,6,21675,-100,tob,h,4761.335,mismatch-type1,1,pilot1
contingency,3430836,task,7,31525,-39,wug,l,5496.65,mismatch-type1,1,pilot1
contingency,3430836,task,8,30875,100,tob,h,5533.78,match,1,pilot1
contingency,3430836,task,9,11725,30,dep,l,4198.475,match,1,pilot1
contingency,3430836,task,10,30975,-100,dep,h,4052.25,mismatch-type1,1,pilot1
contingency,3430836,task,11,20825,-31,dep,l,4943.77,mismatch-type1,1,pilot1
contingency,3430836,task,12,30225,-55,wug,l,4240.455,mismatch-type1,1,pilot1
contingency,3430836,task,13,11875,100,dep,h,2830.175,match,1,pilot1
contingency,3430836,task,14,12075,-100,wug,h,5562.105,mismatch-type1,1,pilot1
contingency,3430836,task,15,20775,88,wug,h,4480.215,match,1,pilot1
contingency,3430836,task,16,30325,-42,wug,l,3602.545,mismatch-type1,1,pilot1
contingency,3430836,task,17,30725,48,tob,l,3848.215,match,1,pilot1
contingency,3430836,task,18,11425,-53,tob,l,4039.77,mismatch-type1,1,pilot1
contingency,3430836,task,19,20325,-57,dep,l,5180.69,mismatch-type1,1,pilot1
contingency,3430836,task,20,20625,46,wug,l,4539.97,match,1,pilot1
contingency,3430836,task,21,21575,98,wug,h,3553.93,match,1,pilot1
contingency,3430836,task,22,10175,100,dep,h,2913.645,match,1,pilot1
contingency,3430836,task,23,22325,-54,dep,l,5368.775,mismatch-type1,1,pilot1
contingency,3430836,task,24,32575,-100,dep,h,4796.92,mismatch-type1,1,pilot1
contingency,3430836,task,25,11375,-97,wug,h,3930.475,mismatch-type1,1,pilot1
contingency,3430836,task,26,33275,-100,dep,h,3236.73,mismatch-type1,1,pilot1
contingency,3430836,task,27,12275,100,dep,h,6418.855,match,1,pilot1
contingency,3430836,task,28,31425,-37,tob,l,5969.09,match,1,pilot1
contingency,3430836,task,29,21975,-100,tob,h,4216.405,mismatch-type1,1,pilot1
contingency,3430836,task,30,11625,-50,tob,l,3730.635,mismatch-type1,1,pilot1
contingency,3430836,task,31,22125,46,wug,l,5499.73,match,1,pilot1
contingency,3430836,task,32,11325,-51,tob,l,3313.58,mismatch-type1,1,pilot1
contingency,3430836,task,33,30825,-100,tob,l,5435.135,match,1,pilot1
contingency,3430836,task,34,12875,-100,wug,h,5301.72,mismatch-type1,1,pilot1
contingency,3430836,task,35,32775,-100,dep,h,3404.575,mismatch-type1,1,pilot1
contingency,3430836,task,36,23175,-100,tob,h,3276.515,mismatch-type1,1,pilot1
contingency,3430836,task,37,20425,44,wug,l,5152.89,match,1,pilot1
contingency,3430836,task,38,20925,54,wug,l,3439.735,match,1,pilot1
contingency,3430836,task,39,31475,100,tob,h,3129.81,match,1,pilot1
contingency,3430836,task,40,12325,-63,tob,l,3892.25,mismatch-type1,1,pilot1
contingency,3430836,task,41,32025,-70,wug,l,4208.74,mismatch-type1,1,pilot1
contingency,3430836,task,42,12225,49,dep,l,3709.765,match,1,pilot1
contingency,3430836,task,43,12125,47,dep,l,3197.125,match,1,pilot1
contingency,3430836,task,44,22375,100,wug,h,4991.65,match,1,pilot1
contingency,3430836,task,45,31575,100,tob,h,2781.795,match,1,pilot1
contingency,3430836,task,46,10975,100,dep,h,2816.17,match,1,pilot1
contingency,3430836,task,47,32275,100,tob,h,2880.015,match,1,pilot1
contingency,3430836,task,48,10675,-99,wug,h,4223.07,mismatch-type1,1,pilot1
contingency,3430836,task,49,32525,54,wug,l,5126.555,mismatch-type1,1,pilot1
contingency,3430836,task,50,21025,27,wug,l,5338.185,match,1,pilot1
contingency,3430836,task,51,10925,-47,tob,l,4124.915,mismatch-type1,1,pilot1
contingency,3430836,task,52,33075,-72,dep,h,3891.305,mismatch-type1,1,pilot1
contingency,3430836,task,53,10625,54,dep,l,4432.73,match,1,pilot1
contingency,3430836,task,54,32225,-86,tob,l,6152.13,match,1,pilot1
contingency,3430836,task,55,22225,-37,dep,l,6573.99,mismatch-type1,1,pilot1
contingency,3430836,task,56,11975,-100,wug,h,3350.015,mismatch-type1,1,pilot1
contingency,3430836,task,57,30275,100,tob,h,2926.48,match,1,pilot1
contingency,3430836,task,58,22175,-100,tob,h,4804.48,mismatch-type1,1,pilot1
contingency,3430836,task,59,31725,43,tob,l,7638.15,match,1,pilot1
contingency,3430836,task,60,20575,-100,tob,h,4281.45,mismatch-type1,1,pilot1
contingency,3424063,task,1,20375,100,wug,h,4173,match,1,pilot1
contingency,3424063,task,2,11025,100,dep,l,2647,match,1,pilot1
contingency,3424063,task,3,21125,-100,dep,l,2695,mismatch-type1,1,pilot1
contingency,3424063,task,4,22475,100,wug,h,2208,match,1,pilot1
contingency,3424063,task,5,13375,100,dep,h,4431,match,1,pilot1
contingency,3424063,task,6,21675,-98,tob,h,3933,mismatch-type1,1,pilot1
contingency,3424063,task,7,31525,-99,wug,l,3276,mismatch-type1,1,pilot1
contingency,3424063,task,8,30875,99,tob,h,3082,match,1,pilot1
contingency,3424063,task,9,11725,99,dep,l,2845,match,1,pilot1
contingency,3424063,task,10,30975,-99,dep,h,4034,mismatch-type1,1,pilot1
contingency,3424063,task,11,20825,-98,dep,l,3357,mismatch-type1,1,pilot1
contingency,3424063,task,12,30225,-99,wug,l,3256,mismatch-type1,1,pilot1
contingency,3424063,task,13,11875,98,dep,h,2847,match,1,pilot1
contingency,3424063,task,14,12075,-100,wug,h,3328,mismatch-type1,1,pilot1
contingency,3424063,task,15,20775,100,wug,h,4385,match,1,pilot1
contingency,3424063,task,16,30325,-100,wug,l,2772,mismatch-type1,1,pilot1
contingency,3424063,task,17,30725,98,tob,l,3212,match,1,pilot1
contingency,3424063,task,18,11425,-100,tob,l,5239,mismatch-type1,1,pilot1
contingency,3424063,task,19,20325,-98,dep,l,3082,mismatch-type1,1,pilot1
contingency,3424063,task,20,20625,100,wug,l,2861,match,1,pilot1
contingency,3424063,task,21,21575,99,wug,h,2232,match,1,pilot1
contingency,3424063,task,22,10175,99,dep,h,2071,match,1,pilot1
contingency,3424063,task,23,22325,-99,dep,l,2467,mismatch-type1,1,pilot1
contingency,3424063,task,24,32575,-100,dep,h,2999,mismatch-type1,1,pilot1
contingency,3424063,task,25,11375,-100,wug,h,2313,mismatch-type1,1,pilot1
contingency,3424063,task,26,33275,-99,dep,h,2525,mismatch-type1,1,pilot1
contingency,3424063,task,27,12275,99,dep,h,2634,match,1,pilot1
contingency,3424063,task,28,31425,100,tob,l,2305,match,1,pilot1
contingency,3424063,task,29,21975,-100,tob,h,2651,mismatch-type1,1,pilot1
contingency,3424063,task,30,11625,-99,tob,l,3243,mismatch-type1,1,pilot1
contingency,3424063,task,31,22125,98,wug,l,2598,match,1,pilot1
contingency,3424063,task,32,11325,-99,tob,l,2975,mismatch-type1,1,pilot1
contingency,3424063,task,33,30825,98,tob,l,2699,match,1,pilot1
contingency,3424063,task,34,12875,-99,wug,h,2740,mismatch-type1,1,pilot1
contingency,3424063,task,35,32775,-100,dep,h,2459,mismatch-type1,1,pilot1
contingency,3424063,task,36,23175,-100,tob,h,2752,mismatch-type1,1,pilot1
contingency,3424063,task,37,20425,100,wug,l,4495,match,1,pilot1
contingency,3424063,task,38,20925,99,wug,l,2136,match,1,pilot1
contingency,3424063,task,39,31475,99,tob,h,4869,match,1,pilot1
contingency,3424063,task,40,12325,-100,tob,l,2439,mismatch-type1,1,pilot1
contingency,3424063,task,41,32025,-99,wug,l,2682,mismatch-type1,1,pilot1
contingency,3424063,task,42,12225,98,dep,l,3161,match,1,pilot1
contingency,3424063,task,43,12125,99,dep,l,2966,match,1,pilot1
contingency,3424063,task,44,22375,99,wug,h,2176,match,1,pilot1
contingency,3424063,task,45,31575,99,tob,h,2034,match,1,pilot1
contingency,3424063,task,46,10975,100,dep,h,2243,match,1,pilot1
contingency,3424063,task,47,32275,98,tob,h,2820,match,1,pilot1
contingency,3424063,task,48,10675,-99,wug,h,2883,mismatch-type1,1,pilot1
contingency,3424063,task,49,32525,-100,wug,l,2606,mismatch-type1,1,pilot1
contingency,3424063,task,50,21025,99,wug,l,2284,match,1,pilot1
contingency,3424063,task,51,10925,-100,tob,l,2870,mismatch-type1,1,pilot1
contingency,3424063,task,52,33075,-100,dep,h,2141,mismatch-type1,1,pilot1
contingency,3424063,task,53,10625,99,dep,l,2680,match,1,pilot1
contingency,3424063,task,54,32225,99,tob,l,2023,match,1,pilot1
contingency,3424063,task,55,22225,-98,dep,l,3424,mismatch-type1,1,pilot1
contingency,3424063,task,56,11975,-99,wug,h,1970,mismatch-type1,1,pilot1
contingency,3424063,task,57,30275,99,tob,h,1997,match,1,pilot1
contingency,3424063,task,58,22175,-99,tob,h,2525,mismatch-type1,1,pilot1
contingency,3424063,task,59,31725,99,tob,l,2665,match,1,pilot1
contingency,3424063,task,60,20575,-100,tob,h,3035,mismatch-type1,1,pilot1
contingency,3421453,task,1,20375,100,wug,h,4979.35,match,1,pilot1
contingency,3421453,task,2,11025,100,dep,l,2982.405,match,1,pilot1
contingency,3421453,task,3,21125,-78,dep,l,6380.595,mismatch-type1,1,pilot1
contingency,3421453,task,4,22475,87,wug,h,2968.68,match,1,pilot1
contingency,3421453,task,5,13375,100,dep,h,3679.35,match,1,pilot1
contingency,3421453,task,6,21675,-99,tob,h,5320.79,mismatch-type1,1,pilot1
contingency,3421453,task,7,31525,-78,wug,l,3435.405,mismatch-type1,1,pilot1
contingency,3421453,task,8,30875,75,tob,h,3149.355,match,1,pilot1
contingency,3421453,task,9,11725,90,dep,l,2773.52,match,1,pilot1
contingency,3421453,task,10,30975,-88,dep,h,4286.675,mismatch-type1,1,pilot1
contingency,3421453,task,11,20825,-83,dep,l,3970.95,mismatch-type1,1,pilot1
contingency,3421453,task,12,30225,-84,wug,l,3474.075,mismatch-type1,1,pilot1
contingency,3421453,task,13,11875,85,dep,h,3113.94,match,1,pilot1
contingency,3421453,task,14,12075,-100,wug,h,2583.06,mismatch-type1,1,pilot1
contingency,3421453,task,15,20775,77,wug,h,3276.845,match,1,pilot1
contingency,3421453,task,16,30325,-82,wug,l,2642.105,mismatch-type1,1,pilot1
contingency,3421453,task,17,30725,81,tob,l,2305.545,match,1,pilot1
contingency,3421453,task,18,11425,-74,tob,l,2164.555,mismatch-type1,1,pilot1
contingency,3421453,task,19,20325,-92,dep,l,3102.225,mismatch-type1,1,pilot1
contingency,3421453,task,20,20625,78,wug,l,4348.38,match,1,pilot1
contingency,3421453,task,21,21575,79,wug,h,2929.015,match,1,pilot1
contingency,3421453,task,22,10175,85,dep,h,2523.255,match,1,pilot1
contingency,3421453,task,23,22325,-83,dep,l,2422.79,mismatch-type1,1,pilot1
contingency,3421453,task,24,32575,-85,dep,h,3163.37,mismatch-type1,1,pilot1
contingency,3421453,task,25,11375,-100,wug,h,3892.445,mismatch-type1,1,pilot1
contingency,3421453,task,26,33275,-100,dep,h,2076.235,mismatch-type1,1,pilot1
contingency,3421453,task,27,12275,87,dep,h,3756.445,match,1,pilot1
contingency,3421453,task,28,31425,62,tob,l,3144.645,match,1,pilot1
contingency,3421453,task,29,21975,-90,tob,h,2712.875,mismatch-type1,1,pilot1
contingency,3421453,task,30,11625,-100,tob,l,2296.68,mismatch-type1,1,pilot1
contingency,3421453,task,31,22125,77,wug,l,2967.725,match,1,pilot1
contingency,3421453,task,32,11325,-100,tob,l,2185.96,mismatch-type1,1,pilot1
contingency,3421453,task,33,30825,-75,tob,l,5019.96,match,1,pilot1
contingency,3421453,task,34,12875,-100,wug,h,2177.05,mismatch-type1,1,pilot1
contingency,3421453,task,35,32775,-85,dep,h,2094.07,mismatch-type1,1,pilot1
contingency,3421453,task,36,23175,-80,tob,h,3088.045,mismatch-type1,1,pilot1
contingency,3421453,task,37,20425,83,wug,l,2051.785,match,1,pilot1
contingency,3421453,task,38,20925,85,wug,l,1889.515,match,1,pilot1
contingency,3421453,task,39,31475,65,tob,h,5699.76,match,1,pilot1
contingency,3421453,task,40,12325,-98,tob,l,1979.93,mismatch-type1,1,pilot1
contingency,3421453,task,41,32025,-63,wug,l,2077.2,mismatch-type1,1,pilot1
contingency,3421453,task,42,12225,81,dep,l,2691.055,match,1,pilot1
contingency,3421453,task,43,12125,60,dep,l,1725.685,match,1,pilot1
contingency,3421453,task,44,22375,83,wug,h,2263.225,match,1,pilot1
contingency,3421453,task,45,31575,80,tob,h,3524.62,match,1,pilot1
contingency,3421453,task,46,10975,51,dep,h,3364.435,match,1,pilot1
contingency,3421453,task,47,32275,70,tob,h,2159.15,match,1,pilot1
contingency,3421453,task,48,10675,79,wug,h,2590.555,mismatch-type1,1,pilot1
contingency,3421453,task,49,32525,-76,wug,l,8499.956,mismatch-type1,1,pilot1
contingency,3421453,task,50,21025,-87,wug,l,4573.38,match,1,pilot1
contingency,3421453,task,51,10925,-75,tob,l,5450.995,mismatch-type1,1,pilot1
contingency,3421453,task,52,33075,-70,dep,h,2876.77,mismatch-type1,1,pilot1
contingency,3421453,task,53,10625,78,dep,l,1973.935,match,1,pilot1
contingency,3421453,task,54,32225,66,tob,l,1876.315,match,1,pilot1
contingency,3421453,task,55,22225,-80,dep,l,2053.87,mismatch-type1,1,pilot1
contingency,3421453,task,56,11975,-75,wug,h,2349.74,mismatch-type1,1,pilot1
contingency,3421453,task,57,30275,-83,tob,h,4713.905,match,1,pilot1
contingency,3421453,task,58,22175,65,tob,h,14176.02,mismatch-type1,1,pilot1
contingency,3421453,task,59,31725,72,tob,l,3714.56,match,1,pilot1
contingency,3421453,task,60,20575,-75,tob,h,3219.495,mismatch-type1,1,pilot1
contingency,3394859,task,1,20375,99,wug,h,5745.795,match,1,pilot1
contingency,3394859,task,2,11025,100,dep,l,3881.955,match,1,pilot1
contingency,3394859,task,3,21125,-100,dep,l,2897.55,mismatch-type1,1,pilot1
contingency,3394859,task,4,22475,100,wug,h,2504.425,match,1,pilot1
contingency,3394859,task,5,13375,100,dep,h,2842.34,match,1,pilot1
contingency,3394859,task,6,21675,-100,tob,h,2505.5,mismatch-type1,1,pilot1
contingency,3394859,task,7,31525,-100,wug,l,2483.19,mismatch-type1,1,pilot1
contingency,3394859,task,8,30875,100,tob,h,2208.23,match,1,pilot1
contingency,3394859,task,9,11725,100,dep,l,2575.815,match,1,pilot1
contingency,3394859,task,10,30975,-98,dep,h,2087.37,mismatch-type1,1,pilot1
contingency,3394859,task,11,20825,-100,dep,l,2199.415,mismatch-type1,1,pilot1
contingency,3394859,task,12,30225,-100,wug,l,1953.155,mismatch-type1,1,pilot1
contingency,3394859,task,13,11875,99,dep,h,1862.81,match,1,pilot1
contingency,3394859,task,14,12075,-100,wug,h,2005.44,mismatch-type1,1,pilot1
contingency,3394859,task,15,20775,100,wug,h,4531.75,match,1,pilot1
contingency,3394859,task,16,30325,-100,wug,l,2379.645,mismatch-type1,1,pilot1
contingency,3394859,task,17,30725,100,tob,l,4076.76,match,1,pilot1
contingency,3394859,task,18,11425,-100,tob,l,2478.04,mismatch-type1,1,pilot1
contingency,3394859,task,19,20325,-100,dep,l,2116.865,mismatch-type1,1,pilot1
contingency,3394859,task,20,20625,100,wug,l,2065.485,match,1,pilot1
contingency,3394859,task,21,21575,100,wug,h,2117.555,match,1,pilot1
contingency,3394859,task,22,10175,100,dep,h,2311.335,match,1,pilot1
contingency,3394859,task,23,22325,-100,dep,l,2018.775,mismatch-type1,1,pilot1
contingency,3394859,task,24,32575,-100,dep,h,2198.15,mismatch-type1,1,pilot1
contingency,3394859,task,25,11375,-100,wug,h,2243.65,mismatch-type1,1,pilot1
contingency,3394859,task,26,33275,-100,dep,h,3438.36,mismatch-type1,1,pilot1
contingency,3394859,task,27,12275,100,dep,h,2601.03,match,1,pilot1
contingency,3394859,task,28,31425,100,tob,l,2426.95,match,1,pilot1
contingency,3394859,task,29,21975,-100,tob,h,2138.94,mismatch-type1,1,pilot1
contingency,3394859,task,30,11625,-100,tob,l,4730.16,mismatch-type1,1,pilot1
contingency,3394859,task,31,22125,100,wug,l,2189.685,match,1,pilot1
contingency,3394859,task,32,11325,-100,tob,l,2410.94,mismatch-type1,1,pilot1
contingency,3394859,task,33,30825,100,tob,l,2189.63,match,1,pilot1
contingency,3394859,task,34,12875,-100,wug,h,4652.905,mismatch-type1,1,pilot1
contingency,3394859,task,35,32775,-100,dep,h,2171.77,mismatch-type1,1,pilot1
contingency,3394859,task,36,23175,-100,tob,h,3932.76,mismatch-type1,1,pilot1
contingency,3394859,task,37,20425,100,wug,l,2056.59,match,1,pilot1
contingency,3394859,task,38,20925,100,wug,l,2080.295,match,1,pilot1
contingency,3394859,task,39,31475,100,tob,h,1859.355,match,1,pilot1
contingency,3394859,task,40,12325,-100,tob,l,3415.295,mismatch-type1,1,pilot1
contingency,3394859,task,41,32025,-100,wug,l,2340.76,mismatch-type1,1,pilot1
contingency,3394859,task,42,12225,100,dep,l,2878.11,match,1,pilot1
contingency,3394859,task,43,12125,100,dep,l,2112.015,match,1,pilot1
contingency,3394859,task,44,22375,100,wug,h,2076.03,match,1,pilot1
contingency,3394859,task,45,31575,100,tob,h,3919.67,match,1,pilot1
contingency,3394859,task,46,10975,100,dep,h,2628.46,match,1,pilot1
contingency,3394859,task,47,32275,100,tob,h,2121.435,match,1,pilot1
contingency,3394859,task,48,10675,-100,wug,h,3997.82,mismatch-type1,1,pilot1
contingency,3394859,task,49,32525,-100,wug,l,1842.225,mismatch-type1,1,pilot1
contingency,3394859,task,50,21025,100,wug,l,2197.475,match,1,pilot1
contingency,3394859,task,51,10925,-100,tob,l,2144.73,mismatch-type1,1,pilot1
contingency,3394859,task,52,33075,-100,dep,h,2300.28,mismatch-type1,1,pilot1
contingency,3394859,task,53,10625,100,dep,l,5286.83,match,1,pilot1
contingency,3394859,task,54,32225,100,tob,l,2250.07,match,1,pilot1
contingency,3394859,task,55,22225,-99,dep,l,2046.21,mismatch-type1,1,pilot1
contingency,3394859,task,56,11975,-100,wug,h,1911.045,mismatch-type1,1,pilot1
contingency,3394859,task,57,30275,100,tob,h,1912.86,match,1,pilot1
contingency,3394859,task,58,22175,-100,tob,h,1759.545,mismatch-type1,1,pilot1
contingency,3394859,task,59,31725,-100,tob,l,1937.185,match,1,pilot1
contingency,3394859,task,60,20575,-100,tob,h,2493.79,mismatch-type1,1,pilot1
contingency,3475213,task,1,20375,100,wug,h,4842.97,match,1,pilot1
contingency,3475213,task,2,11025,100,dep,l,4264.49,match,1,pilot1
contingency,3475213,task,3,21125,42,dep,l,5837.705,mismatch-type1,1,pilot1
contingency,3475213,task,4,22475,100,wug,h,2913.855,match,1,pilot1
contingency,3475213,task,5,13375,100,dep,h,3215.875,match,1,pilot1
contingency,3475213,task,6,21675,-100,tob,h,3547.8,mismatch-type1,1,pilot1
contingency,3475213,task,7,31525,-100,wug,l,2580.895,mismatch-type1,1,pilot1
contingency,3475213,task,8,30875,100,tob,h,5480.905,match,1,pilot1
contingency,3475213,task,9,11725,41,dep,l,4012.58,match,1,pilot1
contingency,3475213,task,10,30975,-77,dep,h,3920.83,mismatch-type1,1,pilot1
contingency,3475213,task,11,20825,-50,dep,l,2305.04,mismatch-type1,1,pilot1
contingency,3475213,task,12,30225,-100,wug,l,2937.155,mismatch-type1,1,pilot1
contingency,3475213,task,13,11875,100,dep,h,3327.27,match,1,pilot1
contingency,3475213,task,14,12075,-100,wug,h,4920.68,mismatch-type1,1,pilot1
contingency,3475213,task,15,20775,100,wug,h,2934.805,match,1,pilot1
contingency,3475213,task,16,30325,-100,wug,l,2334.03,mismatch-type1,1,pilot1
contingency,3475213,task,17,30725,100,tob,l,2739.2,match,1,pilot1
contingency,3475213,task,18,11425,-42,tob,l,2779.605,mismatch-type1,1,pilot1
contingency,3475213,task,19,20325,64,dep,l,4188.595,mismatch-type1,1,pilot1
contingency,3475213,task,20,20625,-44,wug,l,2734.295,match,1,pilot1
contingency,3475213,task,21,21575,100,wug,h,2878.56,match,1,pilot1
contingency,3475213,task,22,10175,100,dep,h,2640.265,match,1,pilot1
contingency,3475213,task,23,22325,-76,dep,l,4409.13,mismatch-type1,1,pilot1
contingency,3475213,task,24,32575,-66,dep,h,2563.425,mismatch-type1,1,pilot1
contingency,3475213,task,25,11375,-80,wug,h,5033.855,mismatch-type1,1,pilot1
contingency,3475213,task,26,33275,-42,dep,h,3165.79,mismatch-type1,1,pilot1
contingency,3475213,task,27,12275,100,dep,h,2500.625,match,1,pilot1
contingency,3475213,task,28,31425,100,tob,l,3704.575,match,1,pilot1
contingency,3475213,task,29,21975,-100,tob,h,2284.93,mismatch-type1,1,pilot1
contingency,3475213,task,30,11625,-99,tob,l,3472.39,mismatch-type1,1,pilot1
contingency,3475213,task,31,22125,-52,wug,l,3003.29,match,1,pilot1
contingency,3475213,task,32,11325,-54,tob,l,3407.545,mismatch-type1,1,pilot1
contingency,3475213,task,33,30825,100,tob,l,2468.485,match,1,pilot1
contingency,3475213,task,34,12875,-48,wug,h,2784.7,mismatch-type1,1,pilot1
contingency,3475213,task,35,32775,-31,dep,h,5359.005,mismatch-type1,1,pilot1
contingency,3475213,task,36,23175,-100,tob,h,3338.53,mismatch-type1,1,pilot1
contingency,3475213,task,37,20425,-45,wug,l,2601.56,match,1,pilot1
contingency,3475213,task,38,20925,-56,wug,l,3174.49,match,1,pilot1
contingency,3475213,task,39,31475,100,tob,h,2471.995,match,1,pilot1
contingency,3475213,task,40,12325,100,tob,l,2705.2,mismatch-type1,1,pilot1
contingency,3475213,task,41,32025,-100,wug,l,2321.54,mismatch-type1,1,pilot1
contingency,3475213,task,42,12225,-56,dep,l,2694.32,match,1,pilot1
contingency,3475213,task,43,12125,-47,dep,l,1938.4,match,1,pilot1
contingency,3475213,task,44,22375,100,wug,h,2530.575,match,1,pilot1
contingency,3475213,task,45,31575,100,tob,h,2912.09,match,1,pilot1
contingency,3475213,task,46,10975,100,dep,h,3381.4,match,1,pilot1
contingency,3475213,task,47,32275,100,tob,h,2886.195,match,1,pilot1
contingency,3475213,task,48,10675,-100,wug,h,2264.325,mismatch-type1,1,pilot1
contingency,3475213,task,49,32525,-97,wug,l,3795.29,mismatch-type1,1,pilot1
contingency,3475213,task,50,21025,60,wug,l,4681.395,match,1,pilot1
contingency,3475213,task,51,10925,-42,tob,l,5116.025,mismatch-type1,1,pilot1
contingency,3475213,task,52,33075,-41,dep,h,2660.61,mismatch-type1,1,pilot1
contingency,3475213,task,53,10625,66,dep,l,2860.67,match,1,pilot1
contingency,3475213,task,54,32225,98,tob,l,4140.145,match,1,pilot1
contingency,3475213,task,55,22225,52,dep,l,4439.825,mismatch-type1,1,pilot1
contingency,3475213,task,56,11975,-99,wug,h,4213.38,mismatch-type1,1,pilot1
contingency,3475213,task,57,30275,100,tob,h,3531.57,match,1,pilot1
contingency,3475213,task,58,22175,-100,tob,h,2288.37,mismatch-type1,1,pilot1
contingency,3475213,task,59,31725,100,tob,l,2641.055,match,1,pilot1
contingency,3475213,task,60,20575,-100,tob,h,1988.335,mismatch-type1,1,pilot1
contingency,3502663,task,1,10625,-100,tob,l,6878.36999999991,mismatch-type1,3,pilot2
contingency,3502663,task,2,32575,-100,dep,h,3273.10500000021,mismatch-type1,3,pilot2
contingency,3502663,task,3,30225,100,tob,l,6883.23999999966,match,3,pilot2
contingency,3502663,task,4,31075,-100,dep,h,2959.25500000021,mismatch-type1,3,pilot2
contingency,3502663,task,5,11875,100,dep,h,2921.30499999985,match,3,pilot2
contingency,3502663,task,6,21425,-100,dep,l,3876.3799999997,mismatch-type1,3,pilot2
contingency,3502663,task,7,10225,100,dep,l,2452.46999999972,match,3,pilot2
contingency,3502663,task,8,22575,-100,tob,h,5837.72,mismatch-type1,3,pilot2
contingency,3502663,task,9,22325,-100,dep,l,2984.015,mismatch-type1,3,pilot2
contingency,3502663,task,10,30525,100,tob,l,3149.26000000014,match,3,pilot2
contingency,3502663,task,11,12425,99,dep,l,2712.66000000013,match,3,pilot2
contingency,3502663,task,12,12675,100,dep,h,3291.71499999984,match,3,pilot2
contingency,3502663,task,13,11525,-100,tob,l,7188.40000000001,mismatch-type1,3,pilot2
contingency,3502663,task,14,20775,98,wug,h,3977.12999999976,match,3,pilot2
contingency,3502663,task,15,31025,-100,wug,l,2802.04499999991,mismatch-type1,3,pilot2
contingency,3502663,task,16,33575,-98,dep,h,4269.51499999996,mismatch-type1,3,pilot2
contingency,3502663,task,17,20375,100,wug,h,3249.75499999983,match,3,pilot2
contingency,3502663,task,18,32475,100,tob,h,3159.02000000005,match,3,pilot2
contingency,3502663,task,19,11575,-100,wug,h,4138.465,mismatch-type1,3,pilot2
contingency,3502663,task,20,31925,100,tob,l,4386.55000000016,match,3,pilot2
contingency,3502663,task,21,32675,99,tob,h,2592.84500000012,match,3,pilot2
contingency,3502663,task,22,30725,-100,wug,l,2523.67499999993,mismatch-type1,3,pilot2
contingency,3502663,task,23,11175,-100,wug,h,3819.19000000015,mismatch-type1,3,pilot2
contingency,3502663,task,24,11075,-100,wug,h,2834.4549999997,mismatch-type1,3,pilot2
contingency,3502663,task,25,22125,-100,dep,l,4454.11499999999,mismatch-type1,3,pilot2
contingency,3502663,task,26,21725,100,wug,l,3271.75499999977,match,3,pilot2
contingency,3502663,task,27,30825,-100,wug,l,6960.41500000001,mismatch-type1,3,pilot2
contingency,3502663,task,28,10175,-97,wug,h,5112.78999999969,mismatch-type1,3,pilot2
contingency,3502663,task,29,22775,-98,tob,h,4913.81499999989,mismatch-type1,3,pilot2
contingency,3502663,task,30,22675,-100,tob,h,4224.36000000016,mismatch-type1,3,pilot2
contingency,3502663,task,31,22425,-98,dep,l,7320.52999999994,mismatch-type1,3,pilot2
contingency,3502663,task,32,21025,-99,dep,l,6094.88499999998,mismatch-type1,3,pilot2
contingency,3502663,task,33,30975,100,tob,h,2462.86499999996,match,3,pilot2
contingency,3502663,task,34,10425,-100,tob,l,3251.17000000001,mismatch-type1,3,pilot2
contingency,3502663,task,35,20625,100,wug,l,3491.27999999974,match,3,pilot2
contingency,3502663,task,36,13375,100,dep,h,4110.01499999975,match,3,pilot2
contingency,3502663,task,37,23275,-99,tob,h,4004.2000000003,mismatch-type1,3,pilot2
contingency,3502663,task,38,12775,-100,wug,h,6682.23999999964,mismatch-type1,3,pilot2
contingency,3502663,task,39,31625,100,tob,l,3151.39500000034,match,3,pilot2
contingency,3502663,task,40,33175,-100,dep,h,2847.24499999994,mismatch-type1,3,pilot2
contingency,3502663,task,41,31825,100,tob,l,2817.62499999968,match,3,pilot2
contingency,3502663,task,42,31375,-100,dep,h,2555.35000000009,mismatch-type1,3,pilot2
contingency,3502663,task,43,33475,100,tob,h,2165.59000000008,match,3,pilot2
contingency,3502663,task,44,31725,-100,wug,l,3331.65499999994,mismatch-type1,3,pilot2
contingency,3502663,task,45,22175,100,wug,h,5357.88500000036,match,3,pilot2
contingency,3502663,task,46,11625,97,dep,l,5030.3349999999,match,3,pilot2
contingency,3502663,task,47,12575,100,dep,h,2333.52000000011,match,3,pilot2
contingency,3502663,task,48,30275,-100,tob,h,2844.39000000019,match,3,pilot2
contingency,3502663,task,49,10875,100,dep,h,5581.30500000017,match,3,pilot2
contingency,3502663,task,50,10925,100,dep,l,2267.09499999968,match,3,pilot2
contingency,3502663,task,51,20675,-100,tob,h,3245.34500000026,mismatch-type1,3,pilot2
contingency,3502663,task,52,31525,-99,wug,l,3924.42999999959,mismatch-type1,3,pilot2
contingency,3502663,task,53,21125,100,wug,l,2811.745,match,3,pilot2
contingency,3502663,task,54,22025,98,wug,l,4443.17500000034,match,3,pilot2
contingency,3502663,task,55,20825,100,wug,l,2835.64500000008,match,3,pilot2
contingency,3502663,task,56,11425,-100,tob,l,3042.52500000031,mismatch-type1,3,pilot2
contingency,3502663,task,57,10125,100,dep,l,2636.8600000001,match,3,pilot2
contingency,3502663,task,58,11925,-100,tob,l,3168.99000000011,mismatch-type1,3,pilot2
contingency,3502663,task,59,20975,100,wug,h,3457.82500000001,match,3,pilot2
contingency,3502663,task,60,23475,100,wug,h,2778.27499999967,match,3,pilot2
contingency,3528246,task,1,32575,-100,dep,h,3783.98999999627,mismatch-type1,3,pilot2
contingency,3528246,task,2,10425,-100,tob,l,3440.40500000119,mismatch-type1,3,pilot2
contingency,3528246,task,3,11425,-100,tob,l,2918.96999999881,mismatch-type1,3,pilot2
contingency,3528246,task,4,10925,100,dep,l,3837.23000000464,match,3,pilot2
contingency,3528246,task,5,22175,100,wug,h,2564.92999999318,match,3,pilot2
contingency,3528246,task,6,31525,-100,wug,l,2640.75999999477,mismatch-type1,3,pilot2
contingency,3528246,task,7,11525,-100,tob,l,2724.05000000435,mismatch-type1,3,pilot2
contingency,3528246,task,8,31825,100,tob,l,4676.55999999261,match,3,pilot2
contingency,3528246,task,9,30825,-100,wug,l,3397.51000000979,mismatch-type1,3,pilot2
contingency,3528246,task,10,33175,-100,dep,h,2331.05500000238,mismatch-type1,3,pilot2
contingency,3528246,task,11,30725,-100,wug,l,3592.90999999212,mismatch-type1,3,pilot2
contingency,3528246,task,12,23275,-100,tob,h,2356.48500001116,mismatch-type1,3,pilot2
contingency,3528246,task,13,22675,-99,tob,h,3014.79999998992,mismatch-type1,3,pilot2
contingency,3528246,task,14,20825,100,wug,l,2201.23500000045,match,3,pilot2
contingency,3528246,task,15,12425,100,dep,l,2907.60500000033,match,3,pilot2
contingency,3528246,task,16,23475,100,wug,h,2847.33000000415,match,3,pilot2
contingency,3528246,task,17,11625,100,dep,l,2147.89000000746,match,3,pilot2
contingency,3528246,task,18,32475,100,tob,h,2002.51500000013,match,3,pilot2
contingency,3528246,task,19,30525,100,tob,l,2804.27500000224,match,3,pilot2
contingency,3528246,task,20,33575,-100,dep,h,3363.55499998899,mismatch-type1,3,pilot2
contingency,3528246,task,21,22775,-100,tob,h,2404.10499999416,mismatch-type1,3,pilot2
contingency,3528246,task,22,31925,100,tob,l,3138.12000000325,match,3,pilot2
contingency,3528246,task,23,30275,100,tob,h,2220.24999999849,match,3,pilot2
contingency,3528246,task,24,11925,-100,tob,l,2503.62000000314,mismatch-type1,3,pilot2
contingency,3528246,task,25,30225,100,tob,l,2436.91999999282,match,3,pilot2
contingency,3528246,task,26,11175,-100,wug,h,2777.84999999858,mismatch-type1,3,pilot2
contingency,3528246,task,27,22025,100,wug,l,2025.36499999405,match,3,pilot2
contingency,3528246,task,28,33475,100,tob,h,1798.3349999995,match,3,pilot2
contingency,3528246,task,29,20675,-100,tob,h,3569.17000000249,mismatch-type1,3,pilot2
contingency,3528246,task,30,21725,96,wug,l,3892.48999999836,match,3,pilot2
contingency,3528246,task,31,21025,-100,dep,l,1984.66500001086,mismatch-type1,3,pilot2
contingency,3528246,task,32,30975,100,tob,h,1791.66499999701,match,3,pilot2
contingency,3528246,task,33,12775,-100,wug,h,3659.56000000006,mismatch-type1,3,pilot2
contingency,3528246,task,34,11075,-100,wug,h,2599.14999999455,mismatch-type1,3,pilot2
contingency,3528246,task,35,10225,100,dep,l,2586.51000000827,match,3,pilot2
contingency,3528246,task,36,21125,100,wug,l,4400.05999999994,match,3,pilot2
contingency,3528246,task,37,22125,-100,dep,l,3113.42999999761,mismatch-type1,3,pilot2
contingency,3528246,task,38,31625,100,tob,l,2669.10500000813,match,3,pilot2
contingency,3528246,task,39,11575,-100,wug,h,3045.31499999575,mismatch-type1,3,pilot2
contingency,3528246,task,40,22575,-100,tob,h,5055.34999999509,mismatch-type1,3,pilot2
contingency,3528246,task,41,20375,100,wug,h,3395.77999999165,match,3,pilot2
contingency,3528246,task,42,13375,100,dep,h,5195.34999999451,match,3,pilot2
contingency,3528246,task,43,22325,-100,dep,l,4523.47499999451,mismatch-type1,3,pilot2
contingency,3528246,task,44,20625,100,wug,l,2559.31499999133,match,3,pilot2
contingency,3528246,task,45,31075,-100,dep,h,4358.15000000002,mismatch-type1,3,pilot2
contingency,3528246,task,46,21425,-100,dep,l,2357.93500000727,mismatch-type1,3,pilot2
contingency,3528246,task,47,20975,100,wug,h,3261.4700000122,match,3,pilot2
contingency,3528246,task,48,10175,-100,wug,h,2725.68499999761,mismatch-type1,3,pilot2
contingency,3528246,task,49,31025,-100,wug,l,2156.69500001241,mismatch-type1,3,pilot2
contingency,3528246,task,50,12575,100,dep,h,2146.8399999867,match,3,pilot2
contingency,3528246,task,51,12675,100,dep,h,2485.89500000526,match,3,pilot2
contingency,3528246,task,52,10625,-100,tob,l,2274.23499998986,mismatch-type1,3,pilot2
contingency,3528246,task,53,31375,-100,dep,h,2379.00999998965,mismatch-type1,3,pilot2
contingency,3528246,task,54,11875,100,dep,h,3519.34499999334,match,3,pilot2
contingency,3528246,task,55,31725,-100,wug,l,5858.86500000197,mismatch-type1,3,pilot2
contingency,3528246,task,56,32675,100,tob,h,2813.3450000023,match,3,pilot2
contingency,3528246,task,57,20775,100,wug,h,2448.21999999112,match,3,pilot2
contingency,3528246,task,58,22425,-100,dep,l,2694.28499999049,mismatch-type1,3,pilot2
contingency,3528246,task,59,10125,100,dep,l,2584.38499999465,match,3,pilot2
contingency,3528246,task,60,10875,100,dep,h,2689.22499999462,match,3,pilot2
contingency,3528247,task,1,20675,-100,tob,h,2949.10999998683,mismatch-type1,3,pilot2
contingency,3528247,task,2,10925,-52,dep,l,3096.10500000417,match,3,pilot2
contingency,3528247,task,3,33575,-59,dep,h,2541.44999998971,mismatch-type1,3,pilot2
contingency,3528247,task,4,31825,18,tob,l,4138.89000000199,match,3,pilot2
contingency,3528247,task,5,13375,75,dep,h,2803.36000001989,match,3,pilot2
contingency,3528247,task,6,33475,63,tob,h,2975.07499999483,match,3,pilot2
contingency,3528247,task,7,10225,-40,dep,l,2429.61000002106,match,3,pilot2
contingency,3528247,task,8,12575,68,dep,h,2318.10999999288,match,3,pilot2
contingency,3528247,task,9,32575,-48,dep,h,2471.2550000113,mismatch-type1,3,pilot2
contingency,3528247,task,10,11575,-100,wug,h,2325.73499999125,mismatch-type1,3,pilot2
contingency,3528247,task,11,30525,-70,tob,l,3438.19499999518,match,3,pilot2
contingency,3528247,task,12,11425,71,tob,l,2189.90999998641,mismatch-type1,3,pilot2
contingency,3528247,task,13,32475,86,tob,h,2374.52000001213,match,3,pilot2
contingency,3528247,task,14,22025,100,wug,l,2341.70499999891,match,3,pilot2
contingency,3528247,task,15,21425,-100,dep,l,2297.5349999906,mismatch-type1,3,pilot2
contingency,3528247,task,16,33175,-53,dep,h,2066.15499997861,mismatch-type1,3,pilot2
contingency,3528247,task,17,10875,77,dep,h,2624.50000000536,match,3,pilot2
contingency,3528247,task,18,30225,-20,tob,l,2479.67000000062,match,3,pilot2
contingency,3528247,task,19,11525,74,tob,l,2659.4149999728,mismatch-type1,3,pilot2
contingency,3528247,task,20,10175,-100,wug,h,2616.39499999001,mismatch-type1,3,pilot2
contingency,3528247,task,21,31625,-48,tob,l,2470.81999998773,match,3,pilot2
contingency,3528247,task,22,10625,86,tob,l,2240.02999998629,mismatch-type1,3,pilot2
contingency,3528247,task,23,31725,-100,wug,l,3033.28499998315,mismatch-type1,3,pilot2
contingency,3528247,task,24,22775,-100,tob,h,2939.87499998184,mismatch-type1,3,pilot2
contingency,3528247,task,25,12675,81,dep,h,2348.13499997836,match,3,pilot2
contingency,3528247,task,26,11625,-48,dep,l,2070.33000001684,match,3,pilot2
contingency,3528247,task,27,21025,-100,dep,l,2635.45000000158,mismatch-type1,3,pilot2
contingency,3528247,task,28,31025,-53,wug,l,2675.76000001281,mismatch-type1,3,pilot2
contingency,3528247,task,29,31925,25,tob,l,2517.02500000829,match,3,pilot2
contingency,3528247,task,30,30975,66,tob,h,2418.15499999211,match,3,pilot2
contingency,3528247,task,31,32675,82,tob,h,2173.26999999932,match,3,pilot2
contingency,3528247,task,32,22175,100,wug,h,2390.94499999192,match,3,pilot2
contingency,3528247,task,33,30825,-24,wug,l,3121.26499999431,mismatch-type1,3,pilot2
contingency,3528247,task,34,31525,-70,wug,l,3289.33500000858,mismatch-type1,3,pilot2
contingency,3528247,task,35,31075,-60,dep,h,2006.77999999607,mismatch-type1,3,pilot2
contingency,3528247,task,36,22675,100,tob,h,2241.02999997558,mismatch-type1,3,pilot2
contingency,3528247,task,37,22575,100,tob,h,2617.67000000691,mismatch-type1,3,pilot2
contingency,3528247,task,38,12425,-45,dep,l,5298.14500000793,match,3,pilot2
contingency,3528247,task,39,11875,66,dep,h,2276.63000000757,match,3,pilot2
contingency,3528247,task,40,11075,-100,wug,h,4307.54500001785,mismatch-type1,3,pilot2
contingency,3528247,task,41,11175,-100,wug,h,2554.26999999327,mismatch-type1,3,pilot2
contingency,3528247,task,42,30725,-100,wug,l,2934.11000000197,mismatch-type1,3,pilot2
contingency,3528247,task,43,10425,66,tob,l,2707.02499998151,mismatch-type1,3,pilot2
contingency,3528247,task,44,30275,83,tob,h,2223.11500000069,match,3,pilot2
contingency,3528247,task,45,20975,100,wug,h,2286.5649999876,match,3,pilot2
contingency,3528247,task,46,20375,100,wug,h,2468.5050000262,match,3,pilot2
contingency,3528247,task,47,23275,-79,tob,h,2266.31000000634,mismatch-type1,3,pilot2
contingency,3528247,task,48,22125,-100,dep,l,2812.9150000168,mismatch-type1,3,pilot2
contingency,3528247,task,49,31375,-76,dep,h,2553.85500000557,mismatch-type1,3,pilot2
contingency,3528247,task,50,21725,100,wug,l,2287.15499999817,match,3,pilot2
contingency,3528247,task,51,20625,100,wug,l,2447.92999999481,match,3,pilot2
contingency,3528247,task,52,20825,100,wug,l,2594.94500001892,match,3,pilot2
contingency,3528247,task,53,11925,51,tob,l,2970.81999998773,mismatch-type1,3,pilot2
contingency,3528247,task,54,20775,100,wug,h,2533.30499998992,match,3,pilot2
contingency,3528247,task,55,12775,-89,wug,h,2475.46000001603,mismatch-type1,3,pilot2
contingency,3528247,task,56,23475,100,wug,h,2348.11999998055,match,3,pilot2
contingency,3528247,task,57,22325,-57,dep,l,2605.75499999686,mismatch-type1,3,pilot2
contingency,3528247,task,58,10125,-31,dep,l,2815.73499998194,match,3,pilot2
contingency,3528247,task,59,21125,72,wug,l,3522.46500001638,match,3,pilot2
contingency,3528247,task,60,22425,-64,dep,l,2282.37000000081,mismatch-type1,3,pilot2
contingency,3517616,task,1,32125,-98,tob,l,3463.14499998698,match,2,pilot2
contingency,3517616,task,2,31675,-69,dep,h,3646.31499999086,mismatch-type1,2,pilot2
contingency,3517616,task,3,11875,12,dep,h,4250.58000002173,match,2,pilot2
contingency,3517616,task,4,30475,99,tob,h,2763.56500000111,match,2,pilot2
contingency,3517616,task,5,12775,48,dep,h,2759.14499998908,match,2,pilot2
contingency,3517616,task,6,30625,99,wug,l,2729.94499999913,mismatch-type1,2,pilot2
contingency,3517616,task,7,12225,97,tob,l,3267.9749999952,mismatch-type1,2,pilot2
contingency,3517616,task,8,30525,99,wug,l,2681.34999999893,mismatch-type1,2,pilot2
contingency,3517616,task,9,11025,100,tob,l,2616.97000000277,mismatch-type1,2,pilot2
contingency,3517616,task,10,32325,-84,tob,l,3601.41999999178,match,2,pilot2
contingency,3517616,task,11,22125,41,dep,l,2438.9450000017,mismatch-type1,2,pilot2
contingency,3517616,task,12,20675,-73,tob,h,3511.38000001083,mismatch-type1,2,pilot2
contingency,3517616,task,13,13075,49,wug,h,2574.30500001647,mismatch-type1,2,pilot2
contingency,3517616,task,14,31325,-65,tob,l,2747.05999999424,match,2,pilot2
contingency,3517616,task,15,21975,84,wug,h,2072.97500001732,match,2,pilot2
contingency,3517616,task,16,21525,42,wug,l,2470.80000001006,match,2,pilot2
contingency,3517616,task,17,30275,-96,dep,h,2922.01999999816,mismatch-type1,2,pilot2
contingency,3517616,task,18,22525,40,dep,l,3163.05000000284,mismatch-type1,2,pilot2
contingency,3517616,task,19,31925,98,wug,l,2278.5000000149,mismatch-type1,2,pilot2
contingency,3517616,task,20,12125,-75,dep,l,3331.59500002512,match,2,pilot2
contingency,3517616,task,21,20175,79,wug,h,1918.21000000346,match,2,pilot2
contingency,3517616,task,22,22025,43,dep,l,2663.36500001489,mismatch-type1,2,pilot2
contingency,3517616,task,23,32775,-47,dep,h,3136.00500000757,mismatch-type1,2,pilot2
contingency,3517616,task,24,30325,95,wug,l,2395.11000001221,mismatch-type1,2,pilot2
contingency,3517616,task,25,22425,48,wug,l,3268.68500001729,match,2,pilot2
contingency,3517616,task,26,20975,98,wug,h,3091.6450000077,match,2,pilot2
contingency,3517616,task,27,10725,99,tob,l,2610.53499998525,mismatch-type1,2,pilot2
contingency,3517616,task,28,20825,50,wug,l,2067.08000000799,match,2,pilot2
contingency,3517616,task,29,23475,99,wug,h,1993.31499999971,match,2,pilot2
contingency,3517616,task,30,32525,-96,tob,l,2570.22500000312,match,2,pilot2
contingency,3517616,task,31,22575,-97,tob,h,2581.00999999442,mismatch-type1,2,pilot2
contingency,3517616,task,32,30775,92,tob,h,2266.55000000028,match,2,pilot2
contingency,3517616,task,33,13375,39,dep,h,2307.24000002374,match,2,pilot2
contingency,3517616,task,34,12425,-69,dep,l,2793.22999998112,match,2,pilot2
contingency,3517616,task,35,10175,-29,wug,h,3609.67999999411,mismatch-type1,2,pilot2
contingency,3517616,task,36,21175,-97,tob,h,2615.85500001092,mismatch-type1,2,pilot2
contingency,3517616,task,37,11125,83,tob,l,2254.00000001537,mismatch-type1,2,pilot2
contingency,3517616,task,38,31625,99,wug,l,2422.22999999649,mismatch-type1,2,pilot2
contingency,3517616,task,39,12175,-42,wug,h,2436.50000001071,mismatch-type1,2,pilot2
contingency,3517616,task,40,32175,-51,dep,h,2157.79499997734,mismatch-type1,2,pilot2
contingency,3517616,task,41,20475,-68,tob,h,2017.43999999599,mismatch-type1,2,pilot2
contingency,3517616,task,42,10925,-62,dep,l,2361.67500002193,match,2,pilot2
contingency,3517616,task,43,11825,-83,dep,l,2085.73500000057,match,2,pilot2
contingency,3517616,task,44,11975,25,dep,h,2192.39999999991,match,2,pilot2
contingency,3517616,task,45,32275,100,tob,h,2227.25500000524,match,2,pilot2
contingency,3517616,task,46,10225,-59,dep,l,1666.57499998109,match,2,pilot2
contingency,3517616,task,47,20425,35,wug,l,3409.90000002785,match,2,pilot2
contingency,3517616,task,48,11375,-87,wug,h,3612.00500000268,mismatch-type1,2,pilot2
contingency,3517616,task,49,30575,66,tob,h,1971.73499999917,match,2,pilot2
contingency,3517616,task,50,21325,-52,wug,l,1749.89500001539,match,2,pilot2
contingency,3517616,task,51,11275,31,wug,h,3537.29999999632,mismatch-type1,2,pilot2
contingency,3517616,task,52,21825,-48,dep,l,2279.16499998537,mismatch-type1,2,pilot2
contingency,3517616,task,53,21875,-70,tob,h,2482.20499997842,mismatch-type1,2,pilot2
contingency,3517616,task,54,20725,-73,dep,l,2001.88500000513,mismatch-type1,2,pilot2
contingency,3517616,task,55,33375,100,tob,h,4807.15500001679,match,2,pilot2
contingency,3517616,task,56,30725,-94,tob,l,3614.029999997,match,2,pilot2
contingency,3517616,task,57,11475,41,dep,h,3457.87499999278,match,2,pilot2
contingency,3517616,task,58,12025,99,tob,l,4586.84000000358,mismatch-type1,2,pilot2
contingency,3517616,task,59,22375,96,wug,h,2863.53500001132,match,2,pilot2
contingency,3517616,task,60,31575,-72,dep,h,2248.22499998845,mismatch-type1,2,pilot2
contingency,3518198,task,1,20175,50,wug,h,4123.00000002142,match,2,pilot2
contingency,3518198,task,2,21525,-46,wug,l,4852.0000000135,match,2,pilot2
contingency,3518198,task,3,30275,71,dep,h,2337.99999998882,mismatch-type1,2,pilot2
contingency,3518198,task,4,32525,80,tob,l,2834.99999996275,match,2,pilot2
contingency,3518198,task,5,30775,92,tob,h,3661.00000002189,match,2,pilot2
contingency,3518198,task,6,11025,84,tob,l,2202.99999997951,mismatch-type1,2,pilot2
contingency,3518198,task,7,13075,-81,wug,h,2961.00000001024,mismatch-type1,2,pilot2
contingency,3518198,task,8,12025,42,tob,l,2176.99999996694,mismatch-type1,2,pilot2
contingency,3518198,task,9,32275,67,tob,h,2520.00000001863,match,2,pilot2
contingency,3518198,task,10,31575,77,dep,h,5429.99999999302,mismatch-type1,2,pilot2
contingency,3518198,task,11,12175,-82,wug,h,2432.0000000298,mismatch-type1,2,pilot2
contingency,3518198,task,12,11475,88,dep,h,2255.99999999395,match,2,pilot2
contingency,3518198,task,13,32125,21,tob,l,3188.00000002375,match,2,pilot2
contingency,3518198,task,14,10225,-87,dep,l,3796.99999996228,match,2,pilot2
contingency,3518198,task,15,32175,82,dep,h,2200.00000001164,mismatch-type1,2,pilot2
contingency,3518198,task,16,30575,94,tob,h,2773.99999997579,match,2,pilot2
contingency,3518198,task,17,31675,-87,dep,h,2527.00000000186,mismatch-type1,2,pilot2
contingency,3518198,task,18,21175,10,tob,h,5097.00000000885,mismatch-type1,2,pilot2
contingency,3518198,task,19,20675,14,tob,h,1586.99999999953,mismatch-type1,2,pilot2
contingency,3518198,task,20,30475,-85,tob,h,2092.99999999348,match,2,pilot2
contingency,3518198,task,21,20475,12,tob,h,1870.99999998463,mismatch-type1,2,pilot2
contingency,3518198,task,22,21875,10,tob,h,1511.99999998789,mismatch-type1,2,pilot2
contingency,3518198,task,23,22575,11,tob,h,1592.99999999348,mismatch-type1,2,pilot2
contingency,3518198,task,24,12425,62,dep,l,3602.0000000135,match,2,pilot2
contingency,3518198,task,25,12225,-79,tob,l,2170.99999997299,mismatch-type1,2,pilot2
contingency,3518198,task,26,12125,27,dep,l,1506.99999998324,match,2,pilot2
contingency,3518198,task,27,23475,72,wug,h,2089.9999999674,match,2,pilot2
contingency,3518198,task,28,22525,-82,dep,l,2896.00000000792,mismatch-type1,2,pilot2
contingency,3518198,task,29,22025,-83,dep,l,1723.99999998743,mismatch-type1,2,pilot2
contingency,3518198,task,30,11875,86,dep,h,2458.00000004238,match,2,pilot2
contingency,3518198,task,31,31625,61,wug,l,1774.99999996508,mismatch-type1,2,pilot2
contingency,3518198,task,32,12775,85,dep,h,1976.9999999553,match,2,pilot2
contingency,3518198,task,33,22375,67,wug,h,1729.99999998137,match,2,pilot2
contingency,3518198,task,34,11125,63,tob,l,2480.00000003958,mismatch-type1,2,pilot2
contingency,3518198,task,35,11275,-83,wug,h,2425.99999997765,mismatch-type1,2,pilot2
contingency,3518198,task,36,21325,57,wug,l,3815.99999999162,match,2,pilot2
contingency,3518198,task,37,31925,-82,wug,l,2524.00000003399,mismatch-type1,2,pilot2
contingency,3518198,task,38,30525,-87,wug,l,1939.00000001304,mismatch-type1,2,pilot2
contingency,3518198,task,39,21825,-92,dep,l,2512.99999997718,mismatch-type1,2,pilot2
contingency,3518198,task,40,11975,81,dep,h,2342.00000000419,match,2,pilot2
contingency,3518198,task,41,33375,87,tob,h,2179.00000000373,match,2,pilot2
contingency,3518198,task,42,32325,-88,tob,l,2152.99999999115,match,2,pilot2
contingency,3518198,task,43,30325,6,wug,l,2267.99999998184,mismatch-type1,2,pilot2
contingency,3518198,task,44,20975,86,wug,h,2062.99999996554,match,2,pilot2
contingency,3518198,task,45,22125,-93,dep,l,2965.99999995669,mismatch-type1,2,pilot2
contingency,3518198,task,46,11375,-93,wug,h,2061.00000004517,mismatch-type1,2,pilot2
contingency,3518198,task,47,10175,-95,wug,h,1550.99999997765,mismatch-type1,2,pilot2
contingency,3518198,task,48,10725,23,tob,l,2153.99999998044,mismatch-type1,2,pilot2
contingency,3518198,task,49,10925,-92,dep,l,2885.00000000931,match,2,pilot2
contingency,3518198,task,50,31325,-92,tob,l,2073.99999996414,match,2,pilot2
contingency,3518198,task,51,30625,-100,wug,l,2329.99999995809,mismatch-type1,2,pilot2
contingency,3518198,task,52,11825,-93,dep,l,3287.00000001118,match,2,pilot2
contingency,3518198,task,53,20725,-99,dep,l,1682.99999996088,mismatch-type1,2,pilot2
contingency,3518198,task,54,21975,95,wug,h,2054.99999999302,match,2,pilot2
contingency,3518198,task,55,20825,-90,wug,l,2065.00000000233,match,2,pilot2
contingency,3518198,task,56,22425,-95,wug,l,2048.99999999907,match,2,pilot2
contingency,3518198,task,57,20425,-95,wug,l,1902.00000000186,match,2,pilot2
contingency,3518198,task,58,32775,-93,dep,h,4647.9999999865,mismatch-type1,2,pilot2
contingency,3518198,task,59,30725,-92,tob,l,2148.99999997579,match,2,pilot2
contingency,3518198,task,60,13375,90,dep,h,2500,match,2,pilot2
contingency,3528252,task,1,30525,100,wug,l,4728.0449999962,mismatch-type1,2,pilot2
contingency,3528252,task,2,12025,61,tob,l,5057.28999996791,mismatch-type1,2,pilot2
contingency,3528252,task,3,31675,-100,dep,h,3589.78999999817,mismatch-type1,2,pilot2
contingency,3528252,task,4,11025,46,tob,l,3445.7500000135,mismatch-type1,2,pilot2
contingency,3528252,task,5,21825,76,dep,l,5547.58499999298,mismatch-type1,2,pilot2
contingency,3528252,task,6,21175,-100,tob,h,3962.62500004377,mismatch-type1,2,pilot2
contingency,3528252,task,7,11375,0,wug,h,8500.219,mismatch-type1,2,pilot2
contingency,3528252,task,8,12225,44,tob,l,3938.7899999856,mismatch-type1,2,pilot2
contingency,3528252,task,9,10925,-89,dep,l,3765.29499999015,match,2,pilot2
contingency,3528252,task,10,31625,100,wug,l,2567.74999998743,mismatch-type1,2,pilot2
contingency,3528252,task,11,33375,100,tob,h,4839.5400000154,match,2,pilot2
contingency,3528252,task,12,10175,-84,wug,h,3727.75000002002,mismatch-type1,2,pilot2
contingency,3528252,task,13,10725,87,tob,l,3768.87500000885,mismatch-type1,2,pilot2
contingency,3528252,task,14,11825,-96,dep,l,4035.2899999707,match,2,pilot2
contingency,3528252,task,15,20675,-100,tob,h,2989.66999998083,mismatch-type1,2,pilot2
contingency,3528252,task,16,20175,100,wug,h,2327.83500000369,match,2,pilot2
contingency,3528252,task,17,32125,-4,tob,l,6768.3749999851,match,2,pilot2
contingency,3528252,task,18,10225,-90,dep,l,7135.5399999884,match,2,pilot2
contingency,3528252,task,19,21325,-29,wug,l,7208.00000004238,match,2,pilot2
contingency,3528252,task,20,30725,-52,tob,l,5585.5000000447,match,2,pilot2
contingency,3528252,task,21,23475,100,wug,h,2959.29000002798,match,2,pilot2
contingency,3528252,task,22,30325,100,wug,l,2900.37500002654,mismatch-type1,2,pilot2
contingency,3528252,task,23,11875,77,dep,h,3431.45499995444,match,2,pilot2
contingency,3528252,task,24,32175,-100,dep,h,4937.62499996228,mismatch-type1,2,pilot2
contingency,3528252,task,25,32525,-100,tob,l,3147.20499998657,match,2,pilot2
contingency,3528252,task,26,30625,100,wug,l,2103.16999995848,mismatch-type1,2,pilot2
contingency,3528252,task,27,21875,-100,tob,h,3127.70499999169,mismatch-type1,2,pilot2
contingency,3528252,task,28,22375,100,wug,h,2542.79000003589,match,2,pilot2
contingency,3528252,task,29,22425,20,wug,l,6297.12499998277,match,2,pilot2
contingency,3528252,task,30,13075,-25,wug,h,4617.49999999302,mismatch-type1,2,pilot2
contingency,3528252,task,31,31575,-100,dep,h,3125.79000002006,mismatch-type1,2,pilot2
contingency,3528252,task,32,12125,-59,dep,l,4518.91499996418,match,2,pilot2
contingency,3528252,task,33,20475,-100,tob,h,2965.12499998789,mismatch-type1,2,pilot2
contingency,3528252,task,34,22025,25,dep,l,4595.37500003353,mismatch-type1,2,pilot2
contingency,3528252,task,35,30575,100,tob,h,3067.74500000756,match,2,pilot2
contingency,3528252,task,36,11475,58,dep,h,4078.20999994874,match,2,pilot2
contingency,3528252,task,37,12775,62,dep,h,3067.57999997353,match,2,pilot2
contingency,3528252,task,38,20425,-45,wug,l,4899.88000004087,match,2,pilot2
contingency,3528252,task,39,30775,100,tob,h,2186.74500001362,match,2,pilot2
contingency,3528252,task,40,11275,-55,wug,h,2763.63000000129,mismatch-type1,2,pilot2
contingency,3528252,task,41,11125,58,tob,l,7891.24499994796,mismatch-type1,2,pilot2
contingency,3528252,task,42,20725,58,dep,l,3710.16999997664,mismatch-type1,2,pilot2
contingency,3528252,task,43,30475,100,tob,h,2819.61999996565,match,2,pilot2
contingency,3528252,task,44,20825,-48,wug,l,3811.83500000043,match,2,pilot2
contingency,3528252,task,45,13375,83,dep,h,5104.25000003306,match,2,pilot2
contingency,3528252,task,46,31325,-47,tob,l,5249.78999997256,match,2,pilot2
contingency,3528252,task,47,32275,100,tob,h,3430.04499998642,match,2,pilot2
contingency,3528252,task,48,21525,-62,wug,l,2804.95499999961,match,2,pilot2
contingency,3528252,task,49,32775,-100,dep,h,3334.87499994226,mismatch-type1,2,pilot2
contingency,3528252,task,50,12425,-92,dep,l,3873.54500003858,match,2,pilot2
contingency,3528252,task,51,30275,-100,dep,h,2642.46000000276,mismatch-type1,2,pilot2
contingency,3528252,task,52,21975,100,wug,h,2908.45499996794,match,2,pilot2
contingency,3528252,task,53,32325,82,tob,l,5442.33500002883,match,2,pilot2
contingency,3528252,task,54,22125,80,dep,l,4713.12500000931,mismatch-type1,2,pilot2
contingency,3528252,task,55,22575,-100,tob,h,2675.37499999162,mismatch-type1,2,pilot2
contingency,3528252,task,56,12175,-95,wug,h,6749.58000000333,mismatch-type1,2,pilot2
contingency,3528252,task,57,31925,91,wug,l,3702.5399999693,mismatch-type1,2,pilot2
contingency,3528252,task,58,22525,66,dep,l,3337.41500001634,mismatch-type1,2,pilot2
contingency,3528252,task,59,20975,100,wug,h,3423.25500003062,match,2,pilot2
contingency,3528252,task,60,11975,71,dep,h,3606.66499997023,match,2,pilot2
contingency,3502650,task,1,NA,0,tob,l,16661.5499999998,match,1,pilot2
contingency,3502650,task,2,NA,0,wug,l,6590.47500000019,match,1,pilot2
contingency,3502650,task,3,NA,0,dep,l,4974.36500000003,mismatch-type1,1,pilot2
contingency,3502650,task,4,NA,0,wug,h,2656.99999999992,match,1,pilot2
contingency,3502650,task,5,NA,-1,dep,l,2710.62499999994,mismatch-type1,1,pilot2
contingency,3502650,task,6,NA,-1,tob,h,4550.57499999998,match,1,pilot2
contingency,3502650,task,7,NA,0,tob,l,23757.4199999999,match,1,pilot2
contingency,3502650,task,8,NA,0,dep,l,2280.31499999997,match,1,pilot2
contingency,3502650,task,9,NA,0,tob,l,2097.82000000018,mismatch-type1,1,pilot2
contingency,3502650,task,10,NA,0,wug,h,1816.86999999988,match,1,pilot2
contingency,3502650,task,11,NA,0,tob,l,1859.56999999986,mismatch-type1,1,pilot2
contingency,3502650,task,12,NA,0,wug,h,1578.125,mismatch-type1,1,pilot2
contingency,3502650,task,13,NA,0,dep,h,1634.87999999983,mismatch-type1,1,pilot2
contingency,3502650,task,14,NA,0,tob,l,1681.08000000006,mismatch-type1,1,pilot2
contingency,3502650,task,15,NA,0,dep,l,1610.13500000013,match,1,pilot2
contingency,3502650,task,16,NA,0,dep,h,1448.97500000002,match,1,pilot2
contingency,3502650,task,17,NA,1,dep,h,2310.24000000002,match,1,pilot2
contingency,3502650,task,18,NA,-1,wug,h,3918.25500000003,mismatch-type1,1,pilot2
contingency,3502650,task,19,NA,0,tob,h,1597.43000000004,mismatch-type1,1,pilot2
contingency,3502650,task,20,NA,1,dep,h,1574.3,mismatch-type1,1,pilot2
contingency,3502650,task,21,NA,0,dep,l,1698.95499999984,mismatch-type1,1,pilot2
contingency,3502650,task,22,NA,0,tob,h,2992.45999999996,match,1,pilot2
contingency,3502650,task,23,NA,-1,wug,l,1453.91500000004,match,1,pilot2
contingency,3502650,task,24,NA,0,tob,h,1619.31499999992,mismatch-type1,1,pilot2
contingency,3502650,task,25,NA,0,tob,h,1442.16500000015,mismatch-type1,1,pilot2
contingency,3502650,task,26,NA,1,tob,h,1562.82000000009,match,1,pilot2
contingency,3502650,task,27,NA,-1,wug,h,1620.28499999997,match,1,pilot2
contingency,3502650,task,28,NA,0,wug,l,1392.96999999988,mismatch-type1,1,pilot2
contingency,3502650,task,29,NA,-1,dep,h,1126.11000000016,match,1,pilot2
contingency,3502650,task,30,NA,-2,wug,l,1196.66000000009,match,1,pilot2
contingency,3502650,task,31,NA,3,wug,l,1804.27000000008,mismatch-type1,1,pilot2
contingency,3502650,task,32,NA,-3,wug,l,1468.41499999983,match,1,pilot2
contingency,3502650,task,33,NA,1,wug,l,1118.34999999998,mismatch-type1,1,pilot2
contingency,3502650,task,34,NA,-4,tob,h,2808.68499999997,match,1,pilot2
contingency,3502650,task,35,NA,3,wug,h,2956.40499999991,mismatch-type1,1,pilot2
contingency,3502650,task,36,NA,-1,wug,l,1501.12000000014,mismatch-type1,1,pilot2
contingency,3502650,task,37,NA,-1,dep,l,1288.04500000001,match,1,pilot2
contingency,3502650,task,38,NA,-2,tob,l,1048.31999999986,match,1,pilot2
contingency,3502650,task,39,NA,2,dep,h,1344.10000000001,mismatch-type1,1,pilot2
contingency,3502650,task,40,NA,-2,tob,h,4148.33500000011,mismatch-type1,1,pilot2
contingency,3502650,task,41,NA,1,wug,h,1323.34499999977,match,1,pilot2
contingency,3502650,task,42,NA,2,tob,l,1907.45000000016,mismatch-type1,1,pilot2
contingency,3502650,task,43,NA,2,dep,l,1472.34000000003,match,1,pilot2
contingency,3502650,task,44,NA,1,tob,l,1243.75000000012,mismatch-type1,1,pilot2
contingency,3502650,task,45,NA,2,wug,l,1150.21000000002,match,1,pilot2
contingency,3502650,task,46,NA,1,wug,h,1722.56500000003,match,1,pilot2
contingency,3502650,task,47,NA,-3,dep,h,1998.92000000001,mismatch-type1,1,pilot2
contingency,3502650,task,48,NA,2,dep,l,1607.47999999989,match,1,pilot2
contingency,3502650,task,49,NA,-3,wug,l,1362.75999999998,mismatch-type1,1,pilot2
contingency,3502650,task,50,NA,1,dep,h,1255.60500000007,mismatch-type1,1,pilot2
contingency,3502650,task,51,NA,-2,dep,h,1301.745,match,1,pilot2
contingency,3502650,task,52,NA,1,tob,l,1424.02000000016,match,1,pilot2
contingency,3502650,task,53,NA,-1,tob,l,1174.51499999993,match,1,pilot2
contingency,3502650,task,54,NA,2,dep,h,1445.36500000005,match,1,pilot2
contingency,3502650,task,55,NA,-1,dep,l,1445.09500000003,mismatch-type1,1,pilot2
contingency,3502650,task,56,NA,1,tob,h,2919.89999999988,match,1,pilot2
contingency,3502650,task,57,NA,-3,wug,h,2382.3299999999,mismatch-type1,1,pilot2
contingency,3502650,task,58,NA,2,tob,h,1567.88000000006,mismatch-type1,1,pilot2
contingency,3502650,task,59,NA,-2,dep,l,1396.78000000003,mismatch-type1,1,pilot2
contingency,3502650,task,60,NA,1,wug,h,5888.89499999981,mismatch-type1,1,pilot2
contingency,3517626,task,1,NA,25,tob,l,8503.74,match,1,pilot2
contingency,3517626,task,2,NA,-42,dep,h,7626.99999997858,match,1,pilot2
contingency,3517626,task,3,NA,43,dep,l,3388.99999999558,match,1,pilot2
contingency,3517626,task,4,NA,67,tob,l,4988.00000001211,mismatch-type1,1,pilot2
contingency,3517626,task,5,NA,-59,wug,l,3635.9999999986,match,1,pilot2
contingency,3517626,task,6,NA,45,wug,l,5975.00000000582,match,1,pilot2
contingency,3517626,task,7,NA,-44,wug,l,3617.99999998766,match,1,pilot2
contingency,3517626,task,8,NA,45,dep,l,3094.00000001187,match,1,pilot2
contingency,3517626,task,9,NA,53,wug,h,2980.99999999977,match,1,pilot2
contingency,3517626,task,10,NA,-49,wug,h,3342.99999999348,match,1,pilot2
contingency,3517626,task,11,NA,46,dep,h,2807.0000000007,mismatch-type1,1,pilot2
contingency,3517626,task,12,NA,51,dep,h,2679.00000000373,match,1,pilot2
contingency,3517626,task,13,NA,45,wug,l,4630.99999999395,match,1,pilot2
contingency,3517626,task,14,NA,58,wug,h,2545.00000001281,mismatch-type1,1,pilot2
contingency,3517626,task,15,NA,-62,dep,l,3065.00000000233,mismatch-type1,1,pilot2
contingency,3517626,task,16,NA,-53,tob,h,2681.00000001141,match,1,pilot2
contingency,3517626,task,17,NA,64,wug,h,2437.00000000536,mismatch-type1,1,pilot2
contingency,3517626,task,18,NA,68,wug,h,2152.99999999115,match,1,pilot2
contingency,3517626,task,19,NA,-61,wug,l,2711.99999999953,match,1,pilot2
contingency,3517626,task,20,NA,-61,dep,l,2497.00000000303,match,1,pilot2
contingency,3517626,task,21,NA,53,tob,l,2407.99999999581,mismatch-type1,1,pilot2
contingency,3517626,task,22,NA,63,tob,h,2065.00000000233,mismatch-type1,1,pilot2
contingency,3517626,task,23,NA,68,tob,h,2214.99999999651,mismatch-type1,1,pilot2
contingency,3517626,task,24,NA,1,wug,l,3130.00000000466,mismatch-type1,1,pilot2
contingency,3517626,task,25,NA,40,dep,l,2997.99999999232,mismatch-type1,1,pilot2
contingency,3517626,task,26,NA,49,tob,h,2589.99999999651,mismatch-type1,1,pilot2
contingency,3517626,task,27,NA,-1,wug,h,2086.99999999953,mismatch-type1,1,pilot2
contingency,3517626,task,28,NA,-2,wug,h,1581.00000000559,match,1,pilot2
contingency,3517626,task,29,NA,-50,dep,h,2410.00000000349,match,1,pilot2
contingency,3517626,task,30,NA,40,dep,h,2364.99999999069,match,1,pilot2
contingency,3517626,task,31,NA,46,tob,h,2025.00000002328,match,1,pilot2
contingency,3517626,task,32,NA,56,dep,l,2510.9999999986,mismatch-type1,1,pilot2
contingency,3517626,task,33,NA,49,dep,h,2486.99999999371,mismatch-type1,1,pilot2
contingency,3517626,task,34,NA,46,tob,h,2124.00000001071,mismatch-type1,1,pilot2
contingency,3517626,task,35,NA,55,dep,h,2162.00000001118,mismatch-type1,1,pilot2
contingency,3517626,task,36,NA,59,wug,h,2398.0000000156,mismatch-type1,1,pilot2
contingency,3517626,task,37,NA,66,dep,h,2390.00000001397,mismatch-type1,1,pilot2
contingency,3517626,task,38,NA,47,dep,l,2014.99999998487,match,1,pilot2
contingency,3517626,task,39,NA,-61,wug,l,2334.00000000256,mismatch-type1,1,pilot2
contingency,3517626,task,40,NA,-54,tob,h,2127.00000000768,mismatch-type1,1,pilot2
contingency,3517626,task,41,NA,-46,tob,l,2441.99999998091,match,1,pilot2
contingency,3517626,task,42,NA,47,dep,l,5217.00000000419,mismatch-type1,1,pilot2
contingency,3517626,task,43,NA,56,dep,h,2839.99999999651,mismatch-type1,1,pilot2
contingency,3517626,task,44,NA,38,wug,l,2431.00000001141,mismatch-type1,1,pilot2
contingency,3517626,task,45,NA,-46,dep,h,2313.99999998393,match,1,pilot2
contingency,3517626,task,46,NA,-1,tob,l,2665.99999999744,mismatch-type1,1,pilot2
contingency,3517626,task,47,NA,-1,dep,l,1644.00000000023,mismatch-type1,1,pilot2
contingency,3517626,task,48,NA,-1,tob,h,8503.73999999999,match,1,pilot2
contingency,3517626,task,49,NA,-1,wug,l,2453.00000000861,mismatch-type1,1,pilot2
contingency,3517626,task,50,NA,-3,tob,l,3779.99999999884,match,1,pilot2
contingency,3517626,task,51,NA,27,tob,l,6369.99999999534,match,1,pilot2
contingency,3517626,task,52,NA,34,dep,l,1907.00000000652,match,1,pilot2
contingency,3517626,task,53,NA,-37,wug,l,2695.99999999627,mismatch-type1,1,pilot2
contingency,3517626,task,54,NA,32,tob,h,2027.00000000186,match,1,pilot2
contingency,3517626,task,55,NA,30,wug,h,2120.99999998463,match,1,pilot2
contingency,3517626,task,56,NA,24,tob,l,2065.99999999162,mismatch-type1,1,pilot2
contingency,3517626,task,57,NA,29,tob,l,1962.99999998882,match,1,pilot2
contingency,3517626,task,58,NA,25,wug,h,3675.00000001746,mismatch-type1,1,pilot2
contingency,3517626,task,59,NA,-40,tob,h,1894.99999998952,match,1,pilot2
contingency,3517626,task,60,NA,-29,tob,l,2190.00000000233,mismatch-type1,1,pilot2
contingency,3528273,task,1,NA,33,wug,l,5758.69000004604,match,1,pilot2
contingency,3528273,task,2,NA,52,dep,l,3677.52999998629,match,1,pilot2
contingency,3528273,task,3,NA,-41,dep,h,2880.15000009909,match,1,pilot2
contingency,3528273,task,4,NA,39,dep,l,8493.486,mismatch-type1,1,pilot2
contingency,3528273,task,5,NA,-5,tob,h,2090.80499992706,match,1,pilot2
contingency,3528273,task,6,NA,24,wug,h,1993.78499994054,match,1,pilot2
contingency,3528273,task,7,NA,9,wug,l,2706.74499985762,mismatch-type1,1,pilot2
contingency,3528273,task,8,NA,-11,tob,h,1683.39999997988,mismatch-type1,1,pilot2
contingency,3528273,task,9,NA,14,dep,h,8493.78999999999,match,1,pilot2
contingency,3528273,task,10,NA,2,dep,l,2842.39999996498,match,1,pilot2
contingency,3528273,task,11,NA,-3,wug,l,2213.91499997117,mismatch-type1,1,pilot2
contingency,3528273,task,12,NA,4,wug,h,1907.83499996178,mismatch-type1,1,pilot2
contingency,3528273,task,13,NA,-2,dep,h,1713.8299997896,match,1,pilot2
contingency,3528273,task,14,NA,3,tob,l,1730.0450000912,mismatch-type1,1,pilot2
contingency,3528273,task,15,NA,18,tob,l,6864.35499996878,match,1,pilot2
contingency,3528273,task,16,NA,-10,wug,h,1512.96999980696,match,1,pilot2
contingency,3528273,task,17,NA,7,tob,h,1170.59500003234,mismatch-type1,1,pilot2
contingency,3528273,task,18,NA,-8,wug,h,1556.40999996103,mismatch-type1,1,pilot2
contingency,3528273,task,19,NA,7,dep,l,1421.82500008494,match,1,pilot2
contingency,3528273,task,20,NA,-2,wug,l,1080.04999998957,match,1,pilot2
contingency,3528273,task,21,NA,11,wug,l,1081.03000000119,mismatch-type1,1,pilot2
contingency,3528273,task,22,NA,-15,tob,l,1391.17000019178,match,1,pilot2
contingency,3528273,task,23,NA,16,dep,l,1537.92000003159,match,1,pilot2
contingency,3528273,task,24,NA,-8,dep,l,1066.934999777,mismatch-type1,1,pilot2
contingency,3528273,task,25,NA,9,dep,l,1743.81000013091,mismatch-type1,1,pilot2
contingency,3528273,task,26,NA,-2,tob,h,1849.30499992333,match,1,pilot2
contingency,3528273,task,27,NA,7,dep,h,1340.66500002518,mismatch-type1,1,pilot2
contingency,3528273,task,28,NA,4,wug,h,2905.28000006452,match,1,pilot2
contingency,3528273,task,29,NA,11,dep,l,1451.6799999401,mismatch-type1,1,pilot2
contingency,3528273,task,30,NA,-12,wug,l,1027.08999998868,match,1,pilot2
contingency,3528273,task,31,NA,-2,tob,l,1106.68500000611,mismatch-type1,1,pilot2
contingency,3528273,task,32,NA,4,dep,h,1183.97999997251,match,1,pilot2
contingency,3528273,task,33,NA,6,dep,l,1156.82999999262,match,1,pilot2
contingency,3528273,task,34,NA,39,tob,l,3724.82499992475,mismatch-type1,1,pilot2
contingency,3528273,task,35,NA,-19,tob,h,2946.02000014856,match,1,pilot2
contingency,3528273,task,36,NA,1,wug,h,1261.40999980271,mismatch-type1,1,pilot2
contingency,3528273,task,37,NA,7,wug,l,1236.73000000417,mismatch-type1,1,pilot2
contingency,3528273,task,38,NA,-1,tob,l,1032.46499993838,match,1,pilot2
contingency,3528273,task,39,NA,22,dep,h,1195.14999981038,mismatch-type1,1,pilot2
contingency,3528273,task,40,NA,8,tob,l,1087.154999841,mismatch-type1,1,pilot2
contingency,3528273,task,41,NA,-24,wug,h,1215.22499993443,mismatch-type1,1,pilot2
contingency,3528273,task,42,NA,6,dep,h,1162.56999992765,match,1,pilot2
contingency,3528273,task,43,NA,-3,tob,h,1014.55000019632,match,1,pilot2
contingency,3528273,task,44,NA,18,dep,h,998.364999890327,mismatch-type1,1,pilot2
contingency,3528273,task,45,NA,-9,wug,h,2068.57999996282,match,1,pilot2
contingency,3528273,task,46,NA,19,dep,h,1783.30000001006,mismatch-type1,1,pilot2
contingency,3528273,task,47,NA,10,tob,h,1138.32999998704,match,1,pilot2
contingency,3528273,task,48,NA,-13,wug,h,1774.23499990255,mismatch-type1,1,pilot2
contingency,3528273,task,49,NA,13,wug,l,1183.70000016876,mismatch-type1,1,pilot2
contingency,3528273,task,50,NA,-6,tob,l,1759.22500016168,mismatch-type1,1,pilot2
contingency,3528273,task,51,NA,14,dep,l,1129.41500009038,mismatch-type1,1,pilot2
contingency,3528273,task,52,NA,10,tob,h,1784.04500009492,mismatch-type1,1,pilot2
contingency,3528273,task,53,NA,11,tob,l,1849.82000011951,match,1,pilot2
contingency,3528273,task,54,NA,13,wug,h,2350.94000003301,match,1,pilot2
contingency,3528273,task,55,NA,-4,tob,h,1710.88499994949,mismatch-type1,1,pilot2
contingency,3528273,task,56,NA,9,wug,l,1903.10500003397,match,1,pilot2
contingency,3528273,task,57,NA,5,dep,h,1863.17500006407,mismatch-type1,1,pilot2
contingency,3528273,task,58,NA,7,tob,l,1497.47999990359,match,1,pilot2
contingency,3528273,task,59,NA,20,tob,h,2401.69500000775,mismatch-type1,1,pilot2
contingency,3528273,task,60,NA,11,wug,l,2024.52500001527,match,1,pilot2
contingency,3502047,task,1,NA,27,tob,l,3952.08499999717,match,1,pilot2
contingency,3502047,task,2,NA,-1,tob,l,8502.033,mismatch-type1,1,pilot2
contingency,3502047,task,3,NA,28,tob,l,6331.77500008605,mismatch-type1,1,pilot2
contingency,3502047,task,4,NA,20,tob,l,2047.34999989159,match,1,pilot2
contingency,3502047,task,5,NA,-23,dep,h,2990.75999995694,match,1,pilot2
contingency,3502047,task,6,NA,7,wug,h,1686.05999997817,match,1,pilot2
contingency,3502047,task,7,NA,17,wug,l,1336.78500005044,mismatch-type1,1,pilot2
contingency,3502047,task,8,NA,-8,tob,h,1691.43999996595,mismatch-type1,1,pilot2
contingency,3502047,task,9,NA,-8,dep,l,8504.092,mismatch-type1,1,pilot2
contingency,3502047,task,10,NA,19,wug,l,14377.1100000013,match,1,pilot2
contingency,3502047,task,11,NA,-11,dep,l,3760.10000007227,match,1,pilot2
contingency,3502047,task,12,NA,-27,dep,l,1770.39999980479,mismatch-type1,1,pilot2
contingency,3502047,task,13,NA,55,dep,h,1368.74000006355,mismatch-type1,1,pilot2
contingency,3502047,task,14,NA,16,wug,h,1612.23499989137,mismatch-type1,1,pilot2
contingency,3502047,task,15,NA,-47,tob,h,1566.66499981657,match,1,pilot2
contingency,3502047,task,16,NA,-66,dep,l,1698.20500002243,mismatch-type1,1,pilot2
contingency,3502047,task,17,NA,22,tob,h,2365.38999993354,match,1,pilot2
contingency,3502047,task,18,NA,46,wug,l,1453.45499995165,match,1,pilot2
contingency,3502047,task,19,NA,-25,dep,l,1385.93499991111,mismatch-type1,1,pilot2
contingency,3502047,task,20,NA,-15,dep,l,1350.25999997742,mismatch-type1,1,pilot2
contingency,3502047,task,21,NA,-49,dep,l,1666.5900000371,match,1,pilot2
contingency,3502047,task,22,NA,14,dep,h,1460.51500015892,match,1,pilot2
contingency,3502047,task,23,NA,-28,tob,l,1179.90000010468,mismatch-type1,1,pilot2
contingency,3502047,task,24,NA,44,wug,l,1129.14000009187,mismatch-type1,1,pilot2
contingency,3502047,task,25,NA,18,dep,h,1290.04999995232,mismatch-type1,1,pilot2
contingency,3502047,task,26,NA,46,wug,l,1151.95500012487,match,1,pilot2
contingency,3502047,task,27,NA,18,wug,l,1382.71999987774,mismatch-type1,1,pilot2
contingency,3502047,task,28,NA,-12,dep,h,3304.8299998045,mismatch-type1,1,pilot2
contingency,3502047,task,29,NA,-29,wug,h,1616.42999993637,mismatch-type1,1,pilot2
contingency,3502047,task,30,NA,26,tob,h,1368.71499987319,match,1,pilot2
contingency,3502047,task,31,NA,56,tob,h,1214.60999990813,mismatch-type1,1,pilot2
contingency,3502047,task,32,NA,5,wug,h,1538.70999999344,mismatch-type1,1,pilot2
contingency,3502047,task,33,NA,15,wug,h,1386.15499995649,mismatch-type1,1,pilot2
contingency,3502047,task,34,NA,-24,tob,h,1041.79499996826,match,1,pilot2
contingency,3502047,task,35,NA,-19,dep,h,1282.03500015661,mismatch-type1,1,pilot2
contingency,3502047,task,36,NA,13,wug,h,1262.86999997683,mismatch-type1,1,pilot2
contingency,3502047,task,37,NA,34,tob,h,1300.69999978878,mismatch-type1,1,pilot2
contingency,3502047,task,38,NA,15,wug,l,2046.75999982283,match,1,pilot2
contingency,3502047,task,39,NA,-20,dep,l,1550.1299998723,match,1,pilot2
contingency,3502047,task,40,NA,-30,wug,h,1405.24999983609,match,1,pilot2
contingency,3502047,task,41,NA,17,wug,l,1352.63999993913,match,1,pilot2
contingency,3502047,task,42,NA,34,dep,l,1236.58000002615,match,1,pilot2
contingency,3502047,task,43,NA,46,tob,l,1240.0599999819,mismatch-type1,1,pilot2
contingency,3502047,task,44,NA,22,dep,h,4393.14999990165,mismatch-type1,1,pilot2
contingency,3502047,task,45,NA,39,tob,l,1976.65999992751,match,1,pilot2
contingency,3502047,task,46,NA,14,dep,h,1443.88000015169,match,1,pilot2
contingency,3502047,task,47,NA,40,dep,h,1433.1199999433,match,1,pilot2
contingency,3502047,task,48,NA,-25,tob,h,1576.05499983765,mismatch-type1,1,pilot2
contingency,3502047,task,49,NA,-21,tob,l,1413.48999994807,mismatch-type1,1,pilot2
contingency,3502047,task,50,NA,-17,wug,l,1091.4749999065,mismatch-type1,1,pilot2
contingency,3502047,task,51,NA,-16,tob,l,1385.35500015132,match,1,pilot2
contingency,3502047,task,52,NA,-22,dep,l,1904.7000000719,match,1,pilot2
contingency,3502047,task,53,NA,-38,tob,l,2047.44999995455,match,1,pilot2
contingency,3502047,task,54,NA,-13,wug,l,1084.07500013709,mismatch-type1,1,pilot2
contingency,3502047,task,55,NA,21,wug,h,939.890000037849,match,1,pilot2
contingency,3502047,task,56,NA,44,wug,h,1560.64500007778,match,1,pilot2
contingency,3502047,task,57,NA,27,tob,h,1315.29500009492,match,1,pilot2
contingency,3502047,task,58,NA,15,tob,h,1315.71500003338,mismatch-type1,1,pilot2
contingency,3502047,task,59,NA,-25,wug,h,1492.54500004463,match,1,pilot2
contingency,3502047,task,60,NA,51,dep,h,1474.18499994092,match,1,pilot2
