resp,category,fribbleSelected,task,subjID,trial,labelPresented,frequency,rt,list,acc,type_of_resp,expeType
10225,1,dep,2AFC - 4 pictures,3467073,43,tob,low,1792.56,1,0,mismatch-type1,pilot1
10225,1,dep,2AFC - 4 pictures,3473048,43,tob,low,1653.205,1,0,mismatch-type1,pilot1
10225,1,dep,2AFC - 4 pictures,3475213,43,tob,low,2342.825,1,0,mismatch-type1,pilot1
10225,1,dep,2AFC - 4 pictures,3481518,43,tob,low,1989.885,1,0,mismatch-type1,pilot1
10625,1,dep,2AFC - 4 pictures,3394859,53,tob,low,1924.45,1,0,mismatch-type1,pilot1
10625,1,dep,2AFC - 4 pictures,3467073,53,tob,low,1365.715,1,0,mismatch-type1,pilot1
10625,1,dep,2AFC - 4 pictures,3473048,53,tob,low,1306.7,1,0,mismatch-type1,pilot1
10625,1,dep,2AFC - 4 pictures,3430836,53,tob,low,1842.09,1,0,mismatch-type1,pilot1
10675,1,dep,2AFC - 4 pictures,3491839,32,wug,high,1547.54,1,0,mismatch-type1,pilot1
10725,1,dep,2AFC - 4 pictures,3491839,7,dep,low,1578.415,1,1,match,pilot1
10725,1,dep,2AFC - 4 pictures,3473048,19,tob,low,2779.145,1,0,mismatch-type1,pilot1
10725,1,dep,2AFC - 4 pictures,3481518,7,dep,low,2375.795,1,1,match,pilot1
10725,1,dep,2AFC - 4 pictures,3424063,7,dep,low,2631,1,1,match,pilot1
10725,1,dep,2AFC - 4 pictures,3421453,7,dep,low,2282.82,1,1,match,pilot1
10725,1,dep,2AFC - 4 pictures,3475213,19,tob,low,2821.775,1,0,mismatch-type1,pilot1
10825,1,dep,2AFC - 4 pictures,3394859,54,dep,low,2401.86,1,1,match,pilot1
10825,1,dep,2AFC - 4 pictures,3421453,54,dep,low,1267.525,1,1,match,pilot1
10825,1,dep,2AFC - 4 pictures,3475213,54,dep,low,2467.24,1,1,match,pilot1
10825,1,dep,2AFC - 4 pictures,3424063,54,dep,low,1821,1,1,match,pilot1
10825,1,dep,2AFC - 4 pictures,3481518,54,dep,low,2341.135,1,1,match,pilot1
10825,1,dep,2AFC - 4 pictures,3481518,22,wug,low,1842.545,1,0,mismatch-type2,pilot1
10875,1,dep,2AFC - 4 pictures,3430836,6,dep,high,2733.505,1,1,match,pilot1
10875,1,dep,2AFC - 4 pictures,3424063,6,dep,high,1182,1,1,match,pilot1
10875,1,dep,2AFC - 4 pictures,3421453,6,dep,high,2881.325,1,1,match,pilot1
10875,1,dep,2AFC - 4 pictures,3467073,6,dep,high,2491.03,1,1,match,pilot1
10875,1,dep,2AFC - 4 pictures,3394859,6,dep,high,2620.63,1,1,match,pilot1
10875,1,dep,2AFC - 4 pictures,3475213,6,dep,high,1669.52,1,1,match,pilot1
10875,1,dep,2AFC - 4 pictures,3473048,6,dep,high,2207.75,1,1,match,pilot1
10925,1,dep,2AFC - 4 pictures,3430836,38,dep,low,2851.03,1,1,match,pilot1
10925,1,dep,2AFC - 4 pictures,3421453,38,dep,low,2234.7,1,1,match,pilot1
10925,1,dep,2AFC - 4 pictures,3467073,38,dep,low,2533.385,1,1,match,pilot1
10925,1,dep,2AFC - 4 pictures,3481518,38,dep,low,2614.155,1,1,match,pilot1
10925,1,dep,2AFC - 4 pictures,3424063,38,dep,low,2656,1,1,match,pilot1
10975,1,dep,2AFC - 4 pictures,3467073,14,bim,control_high,2965.66,1,0,errorControl,pilot1
11075,1,dep,2AFC - 4 pictures,3491839,13,wug,high,1642.94,1,0,mismatch-type1,pilot1
11125,1,dep,2AFC - 4 pictures,3475213,11,dep,low,2513.73,1,1,match,pilot1
11125,1,dep,2AFC - 4 pictures,3481518,24,wug,low,2532.175,1,0,mismatch-type2,pilot1
11125,1,dep,2AFC - 4 pictures,3394859,11,dep,low,3341.83,1,1,match,pilot1
11125,1,dep,2AFC - 4 pictures,3421453,11,dep,low,1925.665,1,1,match,pilot1
11125,1,dep,2AFC - 4 pictures,3421453,34,dep,low,1446.935,1,1,match,pilot1
11125,1,dep,2AFC - 4 pictures,3481518,34,dep,low,2097.595,1,1,match,pilot1
11125,1,dep,2AFC - 4 pictures,3491839,34,dep,low,1554.905,1,1,match,pilot1
11125,1,dep,2AFC - 4 pictures,3424063,11,dep,low,2918,1,1,match,pilot1
11125,1,dep,2AFC - 4 pictures,3424063,34,dep,low,2976,1,1,match,pilot1
11125,1,dep,2AFC - 4 pictures,3491839,52,tob,low,1050.155,1,0,mismatch-type1,pilot1
11125,1,dep,2AFC - 4 pictures,3473048,52,tob,low,1393.375,1,0,mismatch-type1,pilot1
11125,1,dep,2AFC - 4 pictures,3467073,52,tob,low,1225.035,1,0,mismatch-type1,pilot1
11275,1,dep,2AFC - 4 pictures,3491839,8,wug,high,2203.355,1,0,mismatch-type1,pilot1
11375,1,dep,2AFC - 4 pictures,3473048,15,dep,high,3012.195,1,1,match,pilot1
11375,1,dep,2AFC - 4 pictures,3394859,15,dep,high,3099.78,1,1,match,pilot1
11375,1,dep,2AFC - 4 pictures,3491839,15,dep,high,2897.115,1,1,match,pilot1
11375,1,dep,2AFC - 4 pictures,3481518,15,dep,high,1550.11,1,1,match,pilot1
11375,1,dep,2AFC - 4 pictures,3424063,15,dep,high,2121,1,1,match,pilot1
11375,1,dep,2AFC - 4 pictures,3475213,15,dep,high,2678.105,1,1,match,pilot1
11425,1,dep,2AFC - 4 pictures,3430836,56,dep,low,3178.615,1,1,match,pilot1
11425,1,dep,2AFC - 4 pictures,3424063,56,dep,low,2958,1,1,match,pilot1
11425,1,dep,2AFC - 4 pictures,3421453,56,dep,low,1246,1,1,match,pilot1
11425,1,dep,2AFC - 4 pictures,3394859,56,dep,low,3188.485,1,1,match,pilot1
11425,1,dep,2AFC - 4 pictures,3424063,48,dep,low,2762,1,1,match,pilot1
11425,1,dep,2AFC - 4 pictures,3481518,48,dep,low,2244.04,1,1,match,pilot1
11425,1,dep,2AFC - 4 pictures,3421453,48,dep,low,1623.505,1,1,match,pilot1
11425,1,dep,2AFC - 4 pictures,3481518,56,dep,low,2414.21,1,1,match,pilot1
11475,1,dep,2AFC - 4 pictures,3424063,45,dep,high,2589,1,1,match,pilot1
11475,1,dep,2AFC - 4 pictures,3475213,45,dep,high,2721.895,1,1,match,pilot1
11475,1,dep,2AFC - 4 pictures,3430836,45,dep,high,2012.275,1,1,match,pilot1
11475,1,dep,2AFC - 4 pictures,3421453,45,dep,high,1985.78,1,1,match,pilot1
11475,1,dep,2AFC - 4 pictures,3394859,45,dep,high,2627.08,1,1,match,pilot1
11475,1,dep,2AFC - 4 pictures,3467073,45,dep,high,1998.89,1,1,match,pilot1
11475,1,dep,2AFC - 4 pictures,3473048,45,dep,high,2467.48,1,1,match,pilot1
11475,1,dep,2AFC - 4 pictures,3481518,45,dep,high,2079.23,1,1,match,pilot1
11775,1,dep,2AFC - 4 pictures,3481518,3,dep,high,1624.225,1,1,match,pilot1
11775,1,dep,2AFC - 4 pictures,3424063,3,dep,high,2373,1,1,match,pilot1
11775,1,dep,2AFC - 4 pictures,3473048,3,dep,high,1959.13,1,1,match,pilot1
11775,1,dep,2AFC - 4 pictures,3475213,3,dep,high,1919.72,1,1,match,pilot1
11775,1,dep,2AFC - 4 pictures,3467073,3,dep,high,1965.56,1,1,match,pilot1
11775,1,dep,2AFC - 4 pictures,3394859,3,dep,high,2275.02,1,1,match,pilot1
11925,1,dep,2AFC - 4 pictures,3475213,20,tob,low,1791.34,1,0,mismatch-type1,pilot1
11925,1,dep,2AFC - 4 pictures,3467073,20,tob,low,1336.23,1,0,mismatch-type1,pilot1
11925,1,dep,2AFC - 4 pictures,3473048,20,tob,low,2326.855,1,0,mismatch-type1,pilot1
12075,1,dep,2AFC - 4 pictures,3475213,28,tob,high,2489.63,1,0,mismatch-type2,pilot1
12225,1,dep,2AFC - 4 pictures,3473048,10,tob,low,2345.975,1,0,mismatch-type1,pilot1
12225,1,dep,2AFC - 4 pictures,3467073,10,tob,low,1610.1,1,0,mismatch-type1,pilot1
12225,1,dep,2AFC - 4 pictures,3481518,10,tob,low,1177.49,1,0,mismatch-type1,pilot1
12225,1,dep,2AFC - 4 pictures,3491839,10,tob,low,1845.815,1,0,mismatch-type1,pilot1
12275,1,dep,2AFC - 4 pictures,3491839,49,wug,high,1778.215,1,0,mismatch-type1,pilot1
12375,1,dep,2AFC - 4 pictures,3473048,9,dep,high,2254.515,1,1,match,pilot1
12375,1,dep,2AFC - 4 pictures,3475213,9,dep,high,1954.905,1,1,match,pilot1
12375,1,dep,2AFC - 4 pictures,3481518,9,dep,high,1824.175,1,1,match,pilot1
12375,1,dep,2AFC - 4 pictures,3424063,9,dep,high,1929,1,1,match,pilot1
12375,1,dep,2AFC - 4 pictures,3430836,9,dep,high,2875.425,1,1,match,pilot1
12375,1,dep,2AFC - 4 pictures,3394859,9,dep,high,2230.5,1,1,match,pilot1
12375,1,dep,2AFC - 4 pictures,3467073,9,dep,high,2967.795,1,1,match,pilot1
12425,1,dep,2AFC - 4 pictures,3475213,39,dep,low,1651.94,1,1,match,pilot1
12425,1,dep,2AFC - 4 pictures,3467073,39,dep,low,2283.185,1,1,match,pilot1
12425,1,dep,2AFC - 4 pictures,3424063,39,dep,low,1808,1,1,match,pilot1
12425,1,dep,2AFC - 4 pictures,3421453,39,dep,low,1269.66,1,1,match,pilot1
12425,1,dep,2AFC - 4 pictures,3481518,39,dep,low,2213.43,1,1,match,pilot1
12425,1,dep,2AFC - 4 pictures,3430836,39,dep,low,2903.74,1,1,match,pilot1
12425,1,dep,2AFC - 4 pictures,3491839,39,dep,low,1789.515,1,1,match,pilot1
12425,1,dep,2AFC - 4 pictures,3491839,51,bim,control_low,942.06,1,0,errorControl,pilot1
12475,1,dep,2AFC - 4 pictures,3430836,17,dep,high,2229.75,1,1,match,pilot1
12475,1,dep,2AFC - 4 pictures,3473048,17,dep,high,1403.48,1,1,match,pilot1
12475,1,dep,2AFC - 4 pictures,3424063,17,dep,high,1400,1,1,match,pilot1
12475,1,dep,2AFC - 4 pictures,3467073,17,dep,high,2267.755,1,1,match,pilot1
12475,1,dep,2AFC - 4 pictures,3394859,17,dep,high,1805.035,1,1,match,pilot1
12475,1,dep,2AFC - 4 pictures,3421453,17,dep,high,2599.285,1,1,match,pilot1
12475,1,dep,2AFC - 4 pictures,3481518,17,dep,high,1450.475,1,1,match,pilot1
12525,1,dep,2AFC - 4 pictures,3473048,44,tob,low,1272.44,1,0,mismatch-type1,pilot1
12525,1,dep,2AFC - 4 pictures,3467073,35,tob,low,1236.33,1,0,mismatch-type1,pilot1
12525,1,dep,2AFC - 4 pictures,3475213,44,tob,low,2104.3,1,0,mismatch-type1,pilot1
12525,1,dep,2AFC - 4 pictures,3394859,44,tob,low,2286.765,1,0,mismatch-type1,pilot1
12525,1,dep,2AFC - 4 pictures,3430836,35,tob,low,1874.6,1,0,mismatch-type1,pilot1
12525,1,dep,2AFC - 4 pictures,3473048,35,tob,low,2061.385,1,0,mismatch-type1,pilot1
12525,1,dep,2AFC - 4 pictures,3467073,44,tob,low,975.94,1,0,mismatch-type1,pilot1
12575,1,dep,2AFC - 4 pictures,3491839,50,bim,control_high,1328.725,1,0,errorControl,pilot1
12975,1,dep,2AFC - 4 pictures,3473048,31,dep,high,2118.125,1,1,match,pilot1
12975,1,dep,2AFC - 4 pictures,3481518,31,dep,high,2477.975,1,1,match,pilot1
12975,1,dep,2AFC - 4 pictures,3424063,31,dep,high,1885,1,1,match,pilot1
12975,1,dep,2AFC - 4 pictures,3430836,31,dep,high,2981.83,1,1,match,pilot1
12975,1,dep,2AFC - 4 pictures,3394859,31,dep,high,1822.735,1,1,match,pilot1
12975,1,dep,2AFC - 4 pictures,3421453,31,dep,high,1589.325,1,1,match,pilot1
13075,1,dep,2AFC - 4 pictures,3473048,26,dep,high,1895.325,1,1,match,pilot1
13075,1,dep,2AFC - 4 pictures,3467073,26,dep,high,2176.735,1,1,match,pilot1
13075,1,dep,2AFC - 4 pictures,3475213,26,dep,high,2528.645,1,1,match,pilot1
13075,1,dep,2AFC - 4 pictures,3421453,26,dep,high,1994.315,1,1,match,pilot1
13075,1,dep,2AFC - 4 pictures,3481518,26,dep,high,2216.825,1,1,match,pilot1
13075,1,dep,2AFC - 4 pictures,3424063,26,dep,high,1734,1,1,match,pilot1
13075,1,dep,2AFC - 4 pictures,3394859,26,dep,high,2102.165,1,1,match,pilot1
13175,1,dep,2AFC - 4 pictures,3491839,42,wug,high,2264.47,1,0,mismatch-type1,pilot1
13375,1,dep,2AFC - 4 pictures,3491839,25,tob,high,1445.385,1,0,mismatch-type2,pilot1
13375,1,dep,2AFC - 4 pictures,3475213,25,tob,high,2223.06,1,0,mismatch-type2,pilot1
13575,1,dep,2AFC - 4 pictures,3491839,36,wug,high,1510.18,1,0,mismatch-type1,pilot1
20125,2,wug,2AFC - 4 pictures,3394859,40,wug,low,2565.8,1,1,match,pilot1
20125,2,wug,2AFC - 4 pictures,3424063,40,wug,low,1335,1,1,match,pilot1
20125,2,wug,2AFC - 4 pictures,3475213,40,wug,low,1931.96,1,1,match,pilot1
20125,2,wug,2AFC - 4 pictures,3481518,4,wug,low,2358.95,1,1,match,pilot1
20125,2,wug,2AFC - 4 pictures,3424063,4,wug,low,1770,1,1,match,pilot1
20125,2,wug,2AFC - 4 pictures,3421453,40,wug,low,1693.335,1,1,match,pilot1
20125,2,wug,2AFC - 4 pictures,3430836,4,wug,low,3427,1,1,match,pilot1
20125,2,wug,2AFC - 4 pictures,3394859,4,wug,low,3355.37,1,1,match,pilot1
20125,2,wug,2AFC - 4 pictures,3481518,40,wug,low,2037.295,1,1,match,pilot1
20225,2,wug,2AFC - 4 pictures,3424063,27,wug,low,1945,1,1,match,pilot1
20225,2,wug,2AFC - 4 pictures,3481518,27,wug,low,1851.46,1,1,match,pilot1
20225,2,wug,2AFC - 4 pictures,3475213,27,wug,low,1855.3,1,1,match,pilot1
20275,2,wug,2AFC - 4 pictures,3475213,31,dep,high,2571.015,1,0,mismatch-type2,pilot1
20425,2,wug,2AFC - 4 pictures,3421453,35,tob,low,1617.93,1,0,mismatch-type2,pilot1
20475,2,wug,2AFC - 4 pictures,3430836,21,wug,high,2898.285,1,1,match,pilot1
20475,2,wug,2AFC - 4 pictures,3467073,21,wug,high,2205.735,1,1,match,pilot1
20475,2,wug,2AFC - 4 pictures,3481518,21,wug,high,1193.145,1,1,match,pilot1
20475,2,wug,2AFC - 4 pictures,3424063,21,wug,high,1178,1,1,match,pilot1
20475,2,wug,2AFC - 4 pictures,3475213,21,wug,high,1373.895,1,1,match,pilot1
20475,2,wug,2AFC - 4 pictures,3394859,21,wug,high,2066.4,1,1,match,pilot1
20675,2,wug,2AFC - 4 pictures,3421453,9,dep,high,1814.98,1,0,mismatch-type2,pilot1
20975,2,wug,2AFC - 4 pictures,3491839,29,tob,high,1140.16,1,0,mismatch-type1,pilot1
21025,2,wug,2AFC - 4 pictures,3475213,33,wug,low,1746.05,1,1,match,pilot1
21025,2,wug,2AFC - 4 pictures,3421453,33,wug,low,2136.41,1,1,match,pilot1
21025,2,wug,2AFC - 4 pictures,3481518,33,wug,low,2729.56,1,1,match,pilot1
21025,2,wug,2AFC - 4 pictures,3473048,56,dep,low,1703.35,1,0,mismatch-type1,pilot1
21025,2,wug,2AFC - 4 pictures,3475213,56,dep,low,2419.8,1,0,mismatch-type1,pilot1
21025,2,wug,2AFC - 4 pictures,3394859,33,wug,low,2115.355,1,1,match,pilot1
21025,2,wug,2AFC - 4 pictures,3424063,33,wug,low,2664,1,1,match,pilot1
21125,2,wug,2AFC - 4 pictures,3481518,11,dep,low,1903.61,1,0,mismatch-type1,pilot1
21125,2,wug,2AFC - 4 pictures,3473048,48,dep,low,1535.435,1,0,mismatch-type1,pilot1
21125,2,wug,2AFC - 4 pictures,3467073,48,dep,low,1883.195,1,0,mismatch-type1,pilot1
21125,2,wug,2AFC - 4 pictures,3430836,48,dep,low,2779.905,1,0,mismatch-type1,pilot1
21125,2,wug,2AFC - 4 pictures,3424063,22,wug,low,2082,1,1,match,pilot1
21125,2,wug,2AFC - 4 pictures,3473048,11,dep,low,2334.01,1,0,mismatch-type1,pilot1
21125,2,wug,2AFC - 4 pictures,3394859,22,wug,low,1952.28,1,1,match,pilot1
21125,2,wug,2AFC - 4 pictures,3430836,11,dep,low,2871.85,1,0,mismatch-type1,pilot1
21125,2,wug,2AFC - 4 pictures,3473048,7,dep,low,2327.38,1,0,mismatch-type1,pilot1
21125,2,wug,2AFC - 4 pictures,3467073,7,dep,low,1633.605,1,0,mismatch-type1,pilot1
21125,2,wug,2AFC - 4 pictures,3475213,7,dep,low,2608.36,1,0,mismatch-type1,pilot1
21125,2,wug,2AFC - 4 pictures,3430836,7,dep,low,3255.34,1,0,mismatch-type1,pilot1
21125,2,wug,2AFC - 4 pictures,3475213,22,wug,low,2096.915,1,1,match,pilot1
21125,2,wug,2AFC - 4 pictures,3491839,48,dep,low,878.805,1,0,mismatch-type1,pilot1
21175,2,wug,2AFC - 4 pictures,3424063,42,wug,high,1120,1,1,match,pilot1
21175,2,wug,2AFC - 4 pictures,3473048,42,wug,high,1360.095,1,1,match,pilot1
21175,2,wug,2AFC - 4 pictures,3467073,42,wug,high,1201.39,1,1,match,pilot1
21175,2,wug,2AFC - 4 pictures,3481518,42,wug,high,1131.07,1,1,match,pilot1
21175,2,wug,2AFC - 4 pictures,3430836,42,wug,high,3032.235,1,1,match,pilot1
21175,2,wug,2AFC - 4 pictures,3394859,42,wug,high,1519.87,1,1,match,pilot1
21175,2,wug,2AFC - 4 pictures,3475213,42,wug,high,2412.08,1,1,match,pilot1
21225,2,wug,2AFC - 4 pictures,3394859,12,wug,low,2498.615,1,1,match,pilot1
21225,2,wug,2AFC - 4 pictures,3475213,12,wug,low,2653.695,1,1,match,pilot1
21225,2,wug,2AFC - 4 pictures,3424063,12,wug,low,2372,1,1,match,pilot1
21225,2,wug,2AFC - 4 pictures,3481518,12,wug,low,2082.695,1,1,match,pilot1
21325,2,wug,2AFC - 4 pictures,3473048,54,dep,low,1695.75,1,0,mismatch-type1,pilot1
21325,2,wug,2AFC - 4 pictures,3467073,54,dep,low,1187.405,1,0,mismatch-type1,pilot1
21325,2,wug,2AFC - 4 pictures,3430836,54,dep,low,2749.81,1,0,mismatch-type1,pilot1
21425,2,wug,2AFC - 4 pictures,3491839,20,tob,low,1121.76,1,0,mismatch-type2,pilot1
21525,2,wug,2AFC - 4 pictures,3475213,34,dep,low,2292.4,1,0,mismatch-type1,pilot1
21525,2,wug,2AFC - 4 pictures,3473048,34,dep,low,2445.865,1,0,mismatch-type1,pilot1
21675,2,wug,2AFC - 4 pictures,3475213,36,wug,high,2369.475,1,1,match,pilot1
21675,2,wug,2AFC - 4 pictures,3473048,36,wug,high,2135.245,1,1,match,pilot1
21675,2,wug,2AFC - 4 pictures,3394859,36,wug,high,1514.495,1,1,match,pilot1
21675,2,wug,2AFC - 4 pictures,3481518,36,wug,high,1225.36,1,1,match,pilot1
21675,2,wug,2AFC - 4 pictures,3424063,36,wug,high,1455,1,1,match,pilot1
21675,2,wug,2AFC - 4 pictures,3430836,36,wug,high,1567.215,1,1,match,pilot1
21675,2,wug,2AFC - 4 pictures,3421453,36,wug,high,2833.76,1,1,match,pilot1
21675,2,wug,2AFC - 4 pictures,3467073,36,wug,high,1468.11,1,1,match,pilot1
21725,2,wug,2AFC - 4 pictures,3421453,44,tob,low,1478.815,1,0,mismatch-type2,pilot1
21775,2,wug,2AFC - 4 pictures,3421453,15,dep,high,1647.355,1,0,mismatch-type2,pilot1
21875,2,wug,2AFC - 4 pictures,3481518,13,wug,high,1159.77,1,1,match,pilot1
21875,2,wug,2AFC - 4 pictures,3473048,13,wug,high,1974.995,1,1,match,pilot1
21875,2,wug,2AFC - 4 pictures,3430836,13,wug,high,1981.495,1,1,match,pilot1
21875,2,wug,2AFC - 4 pictures,3475213,13,wug,high,1997.025,1,1,match,pilot1
21875,2,wug,2AFC - 4 pictures,3424063,13,wug,high,2482,1,1,match,pilot1
21875,2,wug,2AFC - 4 pictures,3421453,13,wug,high,1285.07,1,1,match,pilot1
21875,2,wug,2AFC - 4 pictures,3467073,13,wug,high,2031.73,1,1,match,pilot1
21925,2,wug,2AFC - 4 pictures,3424063,30,wug,low,1236,1,1,match,pilot1
21925,2,wug,2AFC - 4 pictures,3394859,30,wug,low,2434.3,1,1,match,pilot1
21925,2,wug,2AFC - 4 pictures,3421453,30,wug,low,2398.75,1,1,match,pilot1
21925,2,wug,2AFC - 4 pictures,3481518,30,wug,low,2673.555,1,1,match,pilot1
21925,2,wug,2AFC - 4 pictures,3475213,30,wug,low,2241.74,1,1,match,pilot1
22075,2,wug,2AFC - 4 pictures,3424063,8,wug,high,1935,1,1,match,pilot1
22075,2,wug,2AFC - 4 pictures,3394859,8,wug,high,1587.17,1,1,match,pilot1
22075,2,wug,2AFC - 4 pictures,3473048,8,wug,high,2602.08,1,1,match,pilot1
22075,2,wug,2AFC - 4 pictures,3475213,8,wug,high,1714.12,1,1,match,pilot1
22075,2,wug,2AFC - 4 pictures,3430836,8,wug,high,3213.775,1,1,match,pilot1
22075,2,wug,2AFC - 4 pictures,3481518,8,wug,high,1587.655,1,1,match,pilot1
22075,2,wug,2AFC - 4 pictures,3421453,8,wug,high,1543.025,1,1,match,pilot1
22175,2,wug,2AFC - 4 pictures,3473048,49,wug,high,1799.725,1,1,match,pilot1
22175,2,wug,2AFC - 4 pictures,3481518,49,wug,high,1051.505,1,1,match,pilot1
22175,2,wug,2AFC - 4 pictures,3424063,49,wug,high,2081,1,1,match,pilot1
22175,2,wug,2AFC - 4 pictures,3421453,49,wug,high,2604.13,1,1,match,pilot1
22175,2,wug,2AFC - 4 pictures,3394859,49,wug,high,1812.655,1,1,match,pilot1
22175,2,wug,2AFC - 4 pictures,3430836,49,wug,high,1836.465,1,1,match,pilot1
22175,2,wug,2AFC - 4 pictures,3467073,49,wug,high,1540.14,1,1,match,pilot1
22175,2,wug,2AFC - 4 pictures,3475213,49,wug,high,1778.43,1,1,match,pilot1
22225,2,wug,2AFC - 4 pictures,3394859,39,dep,low,2828.125,1,0,mismatch-type1,pilot1
22225,2,wug,2AFC - 4 pictures,3473048,39,dep,low,2382.975,1,0,mismatch-type1,pilot1
22525,2,wug,2AFC - 4 pictures,3473048,38,dep,low,2735.75,1,0,mismatch-type1,pilot1
22525,2,wug,2AFC - 4 pictures,3394859,24,wug,low,1231.985,1,1,match,pilot1
22525,2,wug,2AFC - 4 pictures,3421453,43,tob,low,1558.04,1,0,mismatch-type2,pilot1
22525,2,wug,2AFC - 4 pictures,3475213,38,dep,low,3097.295,1,0,mismatch-type1,pilot1
22525,2,wug,2AFC - 4 pictures,3421453,24,wug,low,1359.125,1,1,match,pilot1
22525,2,wug,2AFC - 4 pictures,3430836,43,tob,low,2596.05,1,0,mismatch-type2,pilot1
22525,2,wug,2AFC - 4 pictures,3467073,24,wug,low,3291.375,1,1,match,pilot1
22525,2,wug,2AFC - 4 pictures,3475213,24,wug,low,1635.395,1,1,match,pilot1
22525,2,wug,2AFC - 4 pictures,3491839,38,dep,low,1991.72,1,0,mismatch-type1,pilot1
22575,2,wug,2AFC - 4 pictures,3491839,55,bim,control_high,1400.845,1,0,errorControl,pilot1
22875,2,wug,2AFC - 4 pictures,3421453,41,tob,high,1213.435,1,0,mismatch-type1,pilot1
23075,2,wug,2AFC - 4 pictures,3491839,3,dep,high,1661.875,1,0,mismatch-type2,pilot1
23475,2,wug,2AFC - 4 pictures,3421453,16,tob,high,2970.945,1,0,mismatch-type1,pilot1
23475,2,wug,2AFC - 4 pictures,3421453,18,tob,high,2146.895,1,0,mismatch-type1,pilot1
23575,2,wug,2AFC - 4 pictures,3473048,46,wug,high,1620.585,1,1,match,pilot1
23575,2,wug,2AFC - 4 pictures,3430836,32,wug,high,2525.5,1,1,match,pilot1
23575,2,wug,2AFC - 4 pictures,3481518,46,wug,high,1131.595,1,1,match,pilot1
23575,2,wug,2AFC - 4 pictures,3394859,46,wug,high,1488.375,1,1,match,pilot1
23575,2,wug,2AFC - 4 pictures,3481518,32,wug,high,1465.58,1,1,match,pilot1
23575,2,wug,2AFC - 4 pictures,3424063,32,wug,high,2606,1,1,match,pilot1
23575,2,wug,2AFC - 4 pictures,3430836,46,wug,high,1375.41,1,1,match,pilot1
23575,2,wug,2AFC - 4 pictures,3475213,32,wug,high,1418.725,1,1,match,pilot1
23575,2,wug,2AFC - 4 pictures,3467073,46,wug,high,3269.75,1,1,match,pilot1
23575,2,wug,2AFC - 4 pictures,3421453,32,wug,high,1739.43,1,1,match,pilot1
23575,2,wug,2AFC - 4 pictures,3421453,46,wug,high,3294.2,1,1,match,pilot1
23575,2,wug,2AFC - 4 pictures,3491839,46,wug,high,3401.325,1,1,match,pilot1
23575,2,wug,2AFC - 4 pictures,3473048,32,wug,high,1893.06,1,1,match,pilot1
23575,2,wug,2AFC - 4 pictures,3467073,32,wug,high,2573.765,1,1,match,pilot1
23575,2,wug,2AFC - 4 pictures,3424063,46,wug,high,2329,1,1,match,pilot1
23575,2,wug,2AFC - 4 pictures,3394859,32,wug,high,2320.385,1,1,match,pilot1
30125,3,tob,2AFC - 4 pictures,3421453,10,tob,low,2008.635,1,1,match,pilot1
30125,3,tob,2AFC - 4 pictures,3394859,10,tob,low,2683.665,1,1,match,pilot1
30125,3,tob,2AFC - 4 pictures,3475213,10,tob,low,2649.795,1,1,match,pilot1
30125,3,tob,2AFC - 4 pictures,3424063,10,tob,low,2500,1,1,match,pilot1
30225,3,tob,2AFC - 4 pictures,3394859,7,dep,low,2274.7,1,0,mismatch-type2,pilot1
30375,3,tob,2AFC - 4 pictures,3491839,21,wug,high,1185.17,1,0,mismatch-type2,pilot1
30425,3,tob,2AFC - 4 pictures,3424063,52,tob,low,2713,1,1,match,pilot1
30425,3,tob,2AFC - 4 pictures,3475213,52,tob,low,1821.68,1,1,match,pilot1
30425,3,tob,2AFC - 4 pictures,3473048,22,wug,low,1535.04,1,0,mismatch-type1,pilot1
30425,3,tob,2AFC - 4 pictures,3481518,52,tob,low,1891.735,1,1,match,pilot1
30425,3,tob,2AFC - 4 pictures,3491839,22,wug,low,2819,1,0,mismatch-type1,pilot1
30425,3,tob,2AFC - 4 pictures,3421453,52,tob,low,1288.33,1,1,match,pilot1
30425,3,tob,2AFC - 4 pictures,3394859,52,tob,low,2434.32,1,1,match,pilot1
30475,3,tob,2AFC - 4 pictures,3481518,16,tob,high,1106.505,1,1,match,pilot1
30475,3,tob,2AFC - 4 pictures,3473048,16,tob,high,2088.795,1,1,match,pilot1
30475,3,tob,2AFC - 4 pictures,3424063,16,tob,high,3191,1,1,match,pilot1
30475,3,tob,2AFC - 4 pictures,3467073,16,tob,high,2162.51,1,1,match,pilot1
30475,3,tob,2AFC - 4 pictures,3394859,16,tob,high,2462.89,1,1,match,pilot1
30475,3,tob,2AFC - 4 pictures,3430836,16,tob,high,1820.495,1,1,match,pilot1
30475,3,tob,2AFC - 4 pictures,3475213,16,tob,high,3094.59,1,1,match,pilot1
30675,3,tob,2AFC - 4 pictures,3467073,31,dep,high,2787.58,1,0,mismatch-type1,pilot1
30675,3,tob,2AFC - 4 pictures,3491839,14,bim,control_high,1973.32,1,0,errorControl,pilot1
30675,3,tob,2AFC - 4 pictures,3491839,31,dep,high,2224.46,1,0,mismatch-type1,pilot1
30725,3,tob,2AFC - 4 pictures,3394859,43,tob,low,2239.45,1,1,match,pilot1
30725,3,tob,2AFC - 4 pictures,3424063,43,tob,low,2608,1,1,match,pilot1
30825,3,tob,2AFC - 4 pictures,3430836,27,wug,low,1568.22,1,0,mismatch-type1,pilot1
30825,3,tob,2AFC - 4 pictures,3473048,27,wug,low,2231.145,1,0,mismatch-type1,pilot1
30825,3,tob,2AFC - 4 pictures,3467073,27,wug,low,1086.765,1,0,mismatch-type1,pilot1
30825,3,tob,2AFC - 4 pictures,3491839,27,wug,low,1342.015,1,0,mismatch-type1,pilot1
31025,3,tob,2AFC - 4 pictures,3473048,40,wug,low,1614.73,1,0,mismatch-type1,pilot1
31025,3,tob,2AFC - 4 pictures,3430836,40,wug,low,2437.795,1,0,mismatch-type1,pilot1
31025,3,tob,2AFC - 4 pictures,3467073,40,wug,low,1542.915,1,0,mismatch-type1,pilot1
31025,3,tob,2AFC - 4 pictures,3424063,53,tob,low,1506,1,1,match,pilot1
31025,3,tob,2AFC - 4 pictures,3491839,53,tob,low,2140.315,1,1,match,pilot1
31025,3,tob,2AFC - 4 pictures,3491839,40,wug,low,1528.89,1,0,mismatch-type1,pilot1
31025,3,tob,2AFC - 4 pictures,3424063,44,tob,low,1217,1,1,match,pilot1
31025,3,tob,2AFC - 4 pictures,3475213,53,tob,low,1778.76,1,1,match,pilot1
31025,3,tob,2AFC - 4 pictures,3421453,53,tob,low,1796.995,1,1,match,pilot1
31025,3,tob,2AFC - 4 pictures,3481518,44,tob,low,2581.905,1,1,match,pilot1
31025,3,tob,2AFC - 4 pictures,3481518,53,tob,low,1496.12,1,1,match,pilot1
31375,3,tob,2AFC - 4 pictures,3491839,2,tob,high,1687.435,1,1,match,pilot1
31375,3,tob,2AFC - 4 pictures,3467073,8,wug,high,1910.06,1,0,mismatch-type2,pilot1
31375,3,tob,2AFC - 4 pictures,3467073,2,tob,high,1810.315,1,1,match,pilot1
31375,3,tob,2AFC - 4 pictures,3421453,2,tob,high,3431.39,1,1,match,pilot1
31375,3,tob,2AFC - 4 pictures,3424063,2,tob,high,1288,1,1,match,pilot1
31375,3,tob,2AFC - 4 pictures,3430836,2,tob,high,3427.925,1,1,match,pilot1
31375,3,tob,2AFC - 4 pictures,3481518,2,tob,high,1261.24,1,1,match,pilot1
31375,3,tob,2AFC - 4 pictures,3473048,2,tob,high,1713.055,1,1,match,pilot1
31375,3,tob,2AFC - 4 pictures,3475213,2,tob,high,1456.355,1,1,match,pilot1
31375,3,tob,2AFC - 4 pictures,3394859,2,tob,high,1959.245,1,1,match,pilot1
31525,3,tob,2AFC - 4 pictures,3467073,4,wug,low,1817.165,1,0,mismatch-type1,pilot1
31525,3,tob,2AFC - 4 pictures,3481518,35,tob,low,1732.175,1,1,match,pilot1
31525,3,tob,2AFC - 4 pictures,3473048,4,wug,low,2029.325,1,0,mismatch-type1,pilot1
31525,3,tob,2AFC - 4 pictures,3491839,4,wug,low,1662.605,1,0,mismatch-type1,pilot1
31525,3,tob,2AFC - 4 pictures,3475213,4,wug,low,2488.325,1,0,mismatch-type1,pilot1
31525,3,tob,2AFC - 4 pictures,3475213,35,tob,low,2315.555,1,1,match,pilot1
31525,3,tob,2AFC - 4 pictures,3424063,35,tob,low,1516,1,1,match,pilot1
31525,3,tob,2AFC - 4 pictures,3394859,35,tob,low,2484.94,1,1,match,pilot1
31625,3,tob,2AFC - 4 pictures,3394859,19,tob,low,2444.435,1,1,match,pilot1
31625,3,tob,2AFC - 4 pictures,3491839,19,tob,low,2255.685,1,1,match,pilot1
31625,3,tob,2AFC - 4 pictures,3430836,19,tob,low,2843.295,1,1,match,pilot1
31625,3,tob,2AFC - 4 pictures,3481518,19,tob,low,1932.965,1,1,match,pilot1
31825,3,tob,2AFC - 4 pictures,3491839,24,wug,low,1430.615,1,0,mismatch-type1,pilot1
31825,3,tob,2AFC - 4 pictures,3473048,24,wug,low,2053.355,1,0,mismatch-type1,pilot1
31925,3,tob,2AFC - 4 pictures,3430836,33,wug,low,3065.99,1,0,mismatch-type1,pilot1
31925,3,tob,2AFC - 4 pictures,3491839,33,wug,low,1547.195,1,0,mismatch-type1,pilot1
31925,3,tob,2AFC - 4 pictures,3473048,33,wug,low,1655.21,1,0,mismatch-type1,pilot1
31925,3,tob,2AFC - 4 pictures,3467073,33,wug,low,1181.815,1,0,mismatch-type1,pilot1
31975,3,tob,2AFC - 4 pictures,3491839,26,dep,high,2156.265,1,0,mismatch-type1,pilot1
32025,3,tob,2AFC - 4 pictures,3491839,56,dep,low,925.765,1,0,mismatch-type2,pilot1
32075,3,tob,2AFC - 4 pictures,3491839,6,dep,high,1486.32,1,0,mismatch-type1,pilot1
32075,3,tob,2AFC - 4 pictures,3481518,6,dep,high,2099.07,1,0,mismatch-type1,pilot1
32125,3,tob,2AFC - 4 pictures,3430836,20,tob,low,3472.045,1,1,match,pilot1
32125,3,tob,2AFC - 4 pictures,3421453,20,tob,low,3132.665,1,1,match,pilot1
32125,3,tob,2AFC - 4 pictures,3481518,20,tob,low,2029.35,1,1,match,pilot1
32125,3,tob,2AFC - 4 pictures,3394859,20,tob,low,2019.465,1,1,match,pilot1
32125,3,tob,2AFC - 4 pictures,3424063,20,tob,low,2485,1,1,match,pilot1
32275,3,tob,2AFC - 4 pictures,3475213,41,tob,high,3156.755,1,1,match,pilot1
32275,3,tob,2AFC - 4 pictures,3394859,41,tob,high,2954.595,1,1,match,pilot1
32275,3,tob,2AFC - 4 pictures,3430836,41,tob,high,1475.1,1,1,match,pilot1
32275,3,tob,2AFC - 4 pictures,3424063,41,tob,high,1614,1,1,match,pilot1
32275,3,tob,2AFC - 4 pictures,3473048,41,tob,high,1353.59,1,1,match,pilot1
32275,3,tob,2AFC - 4 pictures,3481518,41,tob,high,1235.775,1,1,match,pilot1
32275,3,tob,2AFC - 4 pictures,3467073,41,tob,high,1258.385,1,1,match,pilot1
32375,3,tob,2AFC - 4 pictures,3491839,45,dep,high,1964.36,1,0,mismatch-type1,pilot1
32425,3,tob,2AFC - 4 pictures,3467073,30,wug,low,2029.645,1,0,mismatch-type1,pilot1
32425,3,tob,2AFC - 4 pictures,3430836,30,wug,low,1954.375,1,0,mismatch-type1,pilot1
32425,3,tob,2AFC - 4 pictures,3473048,30,wug,low,1568.69,1,0,mismatch-type1,pilot1
32425,3,tob,2AFC - 4 pictures,3491839,30,wug,low,1699.83,1,0,mismatch-type1,pilot1
32475,3,tob,2AFC - 4 pictures,3491839,17,dep,high,3305.965,1,0,mismatch-type1,pilot1
32525,3,tob,2AFC - 4 pictures,3491839,12,wug,low,1169.4,1,0,mismatch-type1,pilot1
32525,3,tob,2AFC - 4 pictures,3430836,12,wug,low,3171.81,1,0,mismatch-type1,pilot1
32525,3,tob,2AFC - 4 pictures,3421453,12,wug,low,2792.195,1,0,mismatch-type1,pilot1
32525,3,tob,2AFC - 4 pictures,3473048,12,wug,low,2613.575,1,0,mismatch-type1,pilot1
32875,3,tob,2AFC - 4 pictures,3473048,18,tob,high,1551.465,1,1,match,pilot1
32875,3,tob,2AFC - 4 pictures,3394859,29,tob,high,2808.38,1,1,match,pilot1
32875,3,tob,2AFC - 4 pictures,3467073,29,tob,high,1461.115,1,1,match,pilot1
32875,3,tob,2AFC - 4 pictures,3430836,18,tob,high,1547.385,1,1,match,pilot1
32875,3,tob,2AFC - 4 pictures,3430836,29,tob,high,1987.05,1,1,match,pilot1
32875,3,tob,2AFC - 4 pictures,3473048,29,tob,high,2603.065,1,1,match,pilot1
32875,3,tob,2AFC - 4 pictures,3424063,18,tob,high,1644,1,1,match,pilot1
32875,3,tob,2AFC - 4 pictures,3467073,18,tob,high,2418.38,1,1,match,pilot1
32875,3,tob,2AFC - 4 pictures,3481518,18,tob,high,1315.88,1,1,match,pilot1
32875,3,tob,2AFC - 4 pictures,3424063,29,tob,high,1337,1,1,match,pilot1
32875,3,tob,2AFC - 4 pictures,3481518,29,tob,high,1757.645,1,1,match,pilot1
32875,3,tob,2AFC - 4 pictures,3421453,29,tob,high,1722.805,1,1,match,pilot1
32875,3,tob,2AFC - 4 pictures,3394859,18,tob,high,2383.31,1,1,match,pilot1
32875,3,tob,2AFC - 4 pictures,3475213,29,tob,high,2330.6,1,1,match,pilot1
33075,3,tob,2AFC - 4 pictures,3430836,1,tob,high,1825.73,1,1,match,pilot1
33075,3,tob,2AFC - 4 pictures,3424063,1,tob,high,2201,1,1,match,pilot1
33075,3,tob,2AFC - 4 pictures,3491839,1,tob,high,1512.605,1,1,match,pilot1
33075,3,tob,2AFC - 4 pictures,3475213,1,tob,high,1618.665,1,1,match,pilot1
33075,3,tob,2AFC - 4 pictures,3473048,1,tob,high,1302.06,1,1,match,pilot1
33075,3,tob,2AFC - 4 pictures,3421453,1,tob,high,3401.47,1,1,match,pilot1
33075,3,tob,2AFC - 4 pictures,3481518,1,tob,high,1090.34,1,1,match,pilot1
33075,3,tob,2AFC - 4 pictures,3467073,1,tob,high,1597.655,1,1,match,pilot1
33475,3,tob,2AFC - 4 pictures,3491839,28,tob,high,2548.565,1,1,match,pilot1
33475,3,tob,2AFC - 4 pictures,3481518,28,tob,high,1233.165,1,1,match,pilot1
33475,3,tob,2AFC - 4 pictures,3473048,28,tob,high,1570.575,1,1,match,pilot1
33475,3,tob,2AFC - 4 pictures,3394859,28,tob,high,1362.85,1,1,match,pilot1
33475,3,tob,2AFC - 4 pictures,3430836,28,tob,high,1351.635,1,1,match,pilot1
33475,3,tob,2AFC - 4 pictures,3467073,28,tob,high,1389.375,1,1,match,pilot1
33575,3,tob,2AFC - 4 pictures,3430836,25,tob,high,1451.9,1,1,match,pilot1
33575,3,tob,2AFC - 4 pictures,3481518,25,tob,high,1562.665,1,1,match,pilot1
33575,3,tob,2AFC - 4 pictures,3467073,25,tob,high,1569.69,1,1,match,pilot1
33575,3,tob,2AFC - 4 pictures,3473048,25,tob,high,2206.04,1,1,match,pilot1
33575,3,tob,2AFC - 4 pictures,3394859,25,tob,high,1393.42,1,1,match,pilot1
bim10,4,bim,2AFC - 4 pictures,3467073,15,dep,high,2181.47,1,0,errorControl-high,pilot1
bim11,4,bim,2AFC - 4 pictures,3491839,16,tob,high,1152.59,1,0,errorControl-high,pilot1
bim14,4,bim,2AFC - 4 pictures,3475213,14,bim,control_high,1141.21,1,1,match,pilot1
bim14,4,bim,2AFC - 4 pictures,3481518,14,bim,control_high,1057.195,1,1,match,pilot1
bim14,4,bim,2AFC - 4 pictures,3394859,14,bim,control_high,1528.12,1,1,match,pilot1
bim14,4,bim,2AFC - 4 pictures,3421453,14,bim,control_high,1807.225,1,1,match,pilot1
bim14,4,bim,2AFC - 4 pictures,3491839,43,tob,low,1755.345,1,0,errorControl-low,pilot1
bim14,4,bim,2AFC - 4 pictures,3473048,14,bim,control_high,1667.71,1,1,match,pilot1
bim15,4,bim,2AFC - 4 pictures,3491839,9,dep,high,2587.385,1,0,errorControl-high,pilot1
bim16,4,bim,2AFC - 4 pictures,3467073,51,bim,control_low,3100.435,1,1,match,pilot1
bim16,4,bim,2AFC - 4 pictures,3430836,51,bim,control_low,1923.2,1,1,match,pilot1
bim16,4,bim,2AFC - 4 pictures,3424063,51,bim,control_low,1092,1,1,match,pilot1
bim16,4,bim,2AFC - 4 pictures,3481518,51,bim,control_low,1039.55,1,1,match,pilot1
bim16,4,bim,2AFC - 4 pictures,3394859,51,bim,control_low,1527.98,1,1,match,pilot1
bim16,4,bim,2AFC - 4 pictures,3475213,51,bim,control_low,2598.29,1,1,match,pilot1
bim16,4,bim,2AFC - 4 pictures,3473048,51,bim,control_low,2550.63,1,1,match,pilot1
bim16,4,bim,2AFC - 4 pictures,3421453,51,bim,control_low,1999.575,1,1,match,pilot1
bim17,4,bim,2AFC - 4 pictures,3491839,11,dep,low,3264.49,1,0,errorControl-low,pilot1
bim17,4,bim,2AFC - 4 pictures,3467073,11,dep,low,2263.795,1,0,errorControl-low,pilot1
bim17,4,bim,2AFC - 4 pictures,3491839,41,tob,high,1332.71,1,0,errorControl-high,pilot1
bim17,4,bim,2AFC - 4 pictures,3467073,56,dep,low,2288.075,1,0,errorControl-low,pilot1
bim18,4,bim,2AFC - 4 pictures,3467073,19,tob,low,2507.22,1,0,errorControl-low,pilot1
bim2,4,bim,2AFC - 4 pictures,3467073,12,wug,low,1306.325,1,0,errorControl-low,pilot1
bim2,4,bim,2AFC - 4 pictures,3491839,35,tob,low,1233.485,1,0,errorControl-low,pilot1
bim20,4,bim,2AFC - 4 pictures,3475213,46,wug,high,1321.015,1,0,errorControl-high,pilot1
bim22,4,bim,2AFC - 4 pictures,3491839,18,tob,high,2561.525,1,0,errorControl-high,pilot1
bim23,4,bim,2AFC - 4 pictures,3421453,5,bim,control_low,1055.84,1,1,match,pilot1
bim23,4,bim,2AFC - 4 pictures,3394859,5,bim,control_low,1403.73,1,1,match,pilot1
bim23,4,bim,2AFC - 4 pictures,3424063,5,bim,control_low,1098,1,1,match,pilot1
bim23,4,bim,2AFC - 4 pictures,3473048,5,bim,control_low,1503.045,1,1,match,pilot1
bim23,4,bim,2AFC - 4 pictures,3475213,5,bim,control_low,1123.79,1,1,match,pilot1
bim23,4,bim,2AFC - 4 pictures,3467073,5,bim,control_low,1128.485,1,1,match,pilot1
bim23,4,bim,2AFC - 4 pictures,3491839,5,bim,control_low,1362.615,1,1,match,pilot1
bim23,4,bim,2AFC - 4 pictures,3481518,5,bim,control_low,1134.785,1,1,match,pilot1
bim24,4,bim,2AFC - 4 pictures,3481518,23,bim,control_low,914.38,1,1,match,pilot1
bim24,4,bim,2AFC - 4 pictures,3491839,23,bim,control_low,1376.83,1,1,match,pilot1
bim24,4,bim,2AFC - 4 pictures,3424063,23,bim,control_low,1116,1,1,match,pilot1
bim24,4,bim,2AFC - 4 pictures,3475213,23,bim,control_low,1082.515,1,1,match,pilot1
bim24,4,bim,2AFC - 4 pictures,3421453,23,bim,control_low,1384.65,1,1,match,pilot1
bim24,4,bim,2AFC - 4 pictures,3491839,44,tob,low,2042.24,1,0,errorControl-low,pilot1
bim24,4,bim,2AFC - 4 pictures,3394859,23,bim,control_low,1487.625,1,1,match,pilot1
bim24,4,bim,2AFC - 4 pictures,3467073,23,bim,control_low,1467.815,1,1,match,pilot1
bim24,4,bim,2AFC - 4 pictures,3473048,23,bim,control_low,1183.1,1,1,match,pilot1
bim24,4,bim,2AFC - 4 pictures,3430836,23,bim,control_low,2722.09,1,1,match,pilot1
bim4,4,bim,2AFC - 4 pictures,3421453,50,bim,control_high,1279.71,1,1,match,pilot1
bim4,4,bim,2AFC - 4 pictures,3424063,37,bim,control_low,1171,1,1,match,pilot1
bim4,4,bim,2AFC - 4 pictures,3394859,37,bim,control_low,1273.895,1,1,match,pilot1
bim4,4,bim,2AFC - 4 pictures,3394859,50,bim,control_high,1245.8,1,1,match,pilot1
bim4,4,bim,2AFC - 4 pictures,3430836,37,bim,control_low,1705.425,1,1,match,pilot1
bim4,4,bim,2AFC - 4 pictures,3430836,50,bim,control_high,2008.8,1,1,match,pilot1
bim4,4,bim,2AFC - 4 pictures,3481518,37,bim,control_low,1056.055,1,1,match,pilot1
bim4,4,bim,2AFC - 4 pictures,3467073,37,bim,control_low,1711.68,1,1,match,pilot1
bim4,4,bim,2AFC - 4 pictures,3475213,50,bim,control_high,1504.42,1,1,match,pilot1
bim4,4,bim,2AFC - 4 pictures,3481518,50,bim,control_high,1044.885,1,1,match,pilot1
bim4,4,bim,2AFC - 4 pictures,3467073,50,bim,control_high,1258.48,1,1,match,pilot1
bim4,4,bim,2AFC - 4 pictures,3475213,37,bim,control_low,1424.645,1,1,match,pilot1
bim4,4,bim,2AFC - 4 pictures,3473048,50,bim,control_high,1190.76,1,1,match,pilot1
bim4,4,bim,2AFC - 4 pictures,3424063,50,bim,control_high,1075,1,1,match,pilot1
bim4,4,bim,2AFC - 4 pictures,3473048,37,bim,control_low,1604.22,1,1,match,pilot1
bim4,4,bim,2AFC - 4 pictures,3491839,37,bim,control_low,2002.27,1,1,match,pilot1
bim4,4,bim,2AFC - 4 pictures,3421453,37,bim,control_low,1153.475,1,1,match,pilot1
bim5,4,bim,2AFC - 4 pictures,3430836,55,bim,control_high,1476.865,1,1,match,pilot1
bim5,4,bim,2AFC - 4 pictures,3424063,55,bim,control_high,1621,1,1,match,pilot1
bim5,4,bim,2AFC - 4 pictures,3394859,55,bim,control_high,2353.08,1,1,match,pilot1
bim5,4,bim,2AFC - 4 pictures,3473048,55,bim,control_high,1929.185,1,1,match,pilot1
bim5,4,bim,2AFC - 4 pictures,3475213,55,bim,control_high,1496.585,1,1,match,pilot1
bim5,4,bim,2AFC - 4 pictures,3481518,55,bim,control_high,1006.915,1,1,match,pilot1
bim5,4,bim,2AFC - 4 pictures,3421453,55,bim,control_high,882.285,1,1,match,pilot1
bim6,4,bim,2AFC - 4 pictures,3394859,47,bim,control_high,1266.05,1,1,match,pilot1
bim6,4,bim,2AFC - 4 pictures,3467073,47,bim,control_high,1862.295,1,1,match,pilot1
bim6,4,bim,2AFC - 4 pictures,3430836,47,bim,control_high,1964.87,1,1,match,pilot1
bim6,4,bim,2AFC - 4 pictures,3475213,47,bim,control_high,1265.265,1,1,match,pilot1
bim6,4,bim,2AFC - 4 pictures,3473048,47,bim,control_high,1794.215,1,1,match,pilot1
bim6,4,bim,2AFC - 4 pictures,3424063,47,bim,control_high,3049,1,1,match,pilot1
bim6,4,bim,2AFC - 4 pictures,3481518,47,bim,control_high,1030.4,1,1,match,pilot1
bim6,4,bim,2AFC - 4 pictures,3421453,47,bim,control_high,1001.79,1,1,match,pilot1
missing,NA,NA,2AFC - 4 pictures,3424063,28,tob,high,3493,1,NA,timedOut,pilot1
missing,NA,NA,2AFC - 4 pictures,3394859,38,dep,low,3498.675,1,NA,timedOut,pilot1
missing,NA,NA,2AFC - 4 pictures,3430836,5,bim,control_low,3497.951,1,NA,timedOut,pilot1
missing,NA,NA,2AFC - 4 pictures,3467073,22,wug,low,3497.204,1,NA,timedOut,pilot1
missing,NA,NA,2AFC - 4 pictures,3394859,13,wug,high,3498.143,1,NA,timedOut,pilot1
missing,NA,NA,2AFC - 4 pictures,3394859,1,tob,high,3498.575,1,NA,timedOut,pilot1
missing,NA,NA,2AFC - 4 pictures,3491839,47,bim,control_high,3503.505,1,NA,timedOut,pilot1
missing,NA,NA,2AFC - 4 pictures,3475213,17,dep,high,3501.099,1,NA,timedOut,pilot1
missing,NA,NA,2AFC - 4 pictures,3475213,18,tob,high,3500.946,1,NA,timedOut,pilot1
missing,NA,NA,2AFC - 4 pictures,3421453,21,wug,high,3499.887,1,NA,timedOut,pilot1
missing,NA,NA,2AFC - 4 pictures,3421453,22,wug,low,3499.97,1,NA,timedOut,pilot1
missing,NA,NA,2AFC - 4 pictures,3394859,48,dep,low,3498.495,1,NA,timedOut,pilot1
missing,NA,NA,2AFC - 4 pictures,3430836,15,dep,high,3496.841,1,NA,timedOut,pilot1
missing,NA,NA,2AFC - 4 pictures,3491839,54,dep,low,3503.533,1,NA,timedOut,pilot1
missing,NA,NA,2AFC - 4 pictures,3421453,25,tob,high,3500.123,1,NA,timedOut,pilot1
missing,NA,NA,2AFC - 4 pictures,3467073,34,dep,low,3497.211,1,NA,timedOut,pilot1
missing,NA,NA,2AFC - 4 pictures,3421453,28,tob,high,3500.047,1,NA,timedOut,pilot1
missing,NA,NA,2AFC - 4 pictures,3421453,42,wug,high,3500.019,1,NA,timedOut,pilot1
missing,NA,NA,2AFC - 4 pictures,3421453,3,dep,high,3499.997,1,NA,timedOut,pilot1
missing,NA,NA,2AFC - 4 pictures,3430836,22,wug,low,3497.035,1,NA,timedOut,pilot1
missing,NA,NA,2AFC - 4 pictures,3424063,19,tob,low,3498,1,NA,timedOut,pilot1
missing,NA,NA,2AFC - 4 pictures,3430836,24,wug,low,3497.481,1,NA,timedOut,pilot1
missing,NA,NA,2AFC - 4 pictures,3421453,19,tob,low,3499.901,1,NA,timedOut,pilot1
missing,NA,NA,2AFC - 4 pictures,3430836,26,dep,high,3497.19,1,NA,timedOut,pilot1
missing,NA,NA,2AFC - 4 pictures,3424063,24,wug,low,3520,1,NA,timedOut,pilot1
missing,NA,NA,2AFC - 4 pictures,3475213,48,dep,low,3500.972,1,NA,timedOut,pilot1
missing,NA,NA,2AFC - 4 pictures,3394859,34,dep,low,3498.084,1,NA,timedOut,pilot1
missing,NA,NA,2AFC - 4 pictures,3473048,21,wug,high,3501.54,1,NA,timedOut,pilot1
missing,NA,NA,2AFC - 4 pictures,3430836,44,tob,low,3497.237,1,NA,timedOut,pilot1
missing,NA,NA,2AFC - 4 pictures,3421453,27,wug,low,3500.095,1,NA,timedOut,pilot1
missing,NA,NA,2AFC - 4 pictures,3430836,10,tob,low,3496.677,1,NA,timedOut,pilot1
missing,NA,NA,2AFC - 4 pictures,3424063,25,tob,high,3504,1,NA,timedOut,pilot1
missing,NA,NA,2AFC - 4 pictures,3421453,4,wug,low,3500.015,1,NA,timedOut,pilot1
missing,NA,NA,2AFC - 4 pictures,3394859,27,wug,low,3498.277,1,NA,timedOut,pilot1
missing,NA,NA,2AFC - 4 pictures,3430836,14,bim,control_high,3497.848,1,NA,timedOut,pilot1
missing,NA,NA,2AFC - 4 pictures,3467073,55,bim,control_high,3497.201,1,NA,mismatch-type1,pilot1
missing,NA,NA,2AFC - 4 pictures,3424063,14,bim,control_high,3501,1,NA,mismatch-type1,pilot1
missing,NA,NA,2AFC - 4 pictures,3430836,3,dep,high,3502.191,1,NA,mismatch-type1,pilot1
missing,NA,NA,2AFC - 4 pictures,3430836,34,dep,low,3498.153,1,NA,mismatch-type1,pilot1
missing,NA,NA,2AFC - 4 pictures,3430836,52,tob,low,3499.204,1,NA,mismatch-type1,pilot1
10125,1,dep,2AFC - 4 pictures,3518198,30,dep,low,2195.00000000698,2,1,match,pilot2
10125,1,dep,2AFC - 4 pictures,3517616,48,wug,low,1426.28000001423,2,0,mismatch-type2,pilot2
10225,1,dep,2AFC - 4 pictures,3528247,27,dep,low,3036.07999999076,3,1,match,pilot2
10225,1,dep,2AFC - 4 pictures,3528246,19,dep,low,3340.62500001164,3,1,match,pilot2
10225,1,dep,2AFC - 4 pictures,3502663,23,dep,low,2045.80500000021,3,1,match,pilot2
10325,1,dep,2AFC - 4 pictures,3528247,46,tob,low,1134.78000002215,3,0,mismatch-type1,pilot2
10325,1,dep,2AFC - 4 pictures,3518198,55,dep,low,2857.00000001816,2,1,match,pilot2
10425,1,dep,2AFC - 4 pictures,3528247,40,tob,low,1276.3799999957,3,0,mismatch-type1,pilot2
10475,1,dep,2AFC - 4 pictures,3528247,21,dep,high,2258.28000000911,3,1,match,pilot2
10475,1,dep,2AFC - 4 pictures,3528246,21,dep,high,3021.9250000082,3,1,match,pilot2
10475,1,dep,2AFC - 4 pictures,3528273,47,dep,high,1826.74500020221,1,1,match,pilot2
10475,1,dep,2AFC - 4 pictures,3517626,30,dep,high,3021.00000000792,1,1,match,pilot2
10475,1,dep,2AFC - 4 pictures,3502663,50,dep,high,2095.91999999975,3,1,match,pilot2
10475,1,dep,2AFC - 4 pictures,3502650,21,dep,high,2395.52000000003,1,1,match,pilot2
10525,1,dep,2AFC - 4 pictures,3528273,25,tob,low,2193.5049998574,1,0,mismatch-type1,pilot2
10525,1,dep,2AFC - 4 pictures,3528252,23,tob,low,1038.08500000741,2,0,mismatch-type1,pilot2
10525,1,dep,2AFC - 4 pictures,3502650,55,tob,low,1440.31500000006,1,0,mismatch-type1,pilot2
10525,1,dep,2AFC - 4 pictures,3518198,28,tob,low,3125.99999998929,2,0,mismatch-type1,pilot2
10525,1,dep,2AFC - 4 pictures,3517616,42,tob,low,1620.76499999966,2,0,mismatch-type1,pilot2
10525,1,dep,2AFC - 4 pictures,3517626,13,tob,low,1372.99999999232,1,0,mismatch-type1,pilot2
10625,1,dep,2AFC - 4 pictures,3528252,53,tob,low,1255.87499997346,2,0,mismatch-type1,pilot2
10625,1,dep,2AFC - 4 pictures,3518198,50,tob,low,2853.00000000279,2,0,mismatch-type1,pilot2
10625,1,dep,2AFC - 4 pictures,3517616,16,tob,low,1419.67000000295,2,0,mismatch-type1,pilot2
10675,1,dep,2AFC - 4 pictures,3528252,31,dep,high,1894.78999999119,2,1,match,pilot2
10675,1,dep,2AFC - 4 pictures,3528247,11,dep,high,1720.44999999343,3,1,match,pilot2
10675,1,dep,2AFC - 4 pictures,3528246,45,dep,high,2346.72499999579,3,1,match,pilot2
10675,1,dep,2AFC - 4 pictures,3502663,13,dep,high,1368.79999999974,3,1,match,pilot2
10675,1,dep,2AFC - 4 pictures,3518198,37,dep,high,1513.00000003539,2,1,match,pilot2
10725,1,dep,2AFC - 4 pictures,3517616,32,tob,low,1402.05000000424,2,0,mismatch-type1,pilot2
10725,1,dep,2AFC - 4 pictures,3528252,26,tob,low,1283.58500002651,2,0,mismatch-type1,pilot2
10725,1,dep,2AFC - 4 pictures,3518198,15,tob,low,2069.0000000177,2,0,mismatch-type1,pilot2
10825,1,dep,2AFC - 4 pictures,3518198,56,dep,low,1614.99999999069,2,1,match,pilot2
10825,1,dep,2AFC - 4 pictures,3518198,21,dep,low,1734.99999998603,2,1,match,pilot2
10925,1,dep,2AFC - 4 pictures,3502663,28,dep,low,2312.32000000001,3,1,match,pilot2
10925,1,dep,2AFC - 4 pictures,3518198,9,dep,low,2100.99999996601,2,1,match,pilot2
10925,1,dep,2AFC - 4 pictures,3517616,56,dep,low,1146.11500001047,2,1,match,pilot2
10975,1,dep,2AFC - 4 pictures,3502663,39,dep,high,2006.02500000014,3,1,match,pilot2
10975,1,dep,2AFC - 4 pictures,3528247,10,dep,high,1777.40500000073,3,1,match,pilot2
10975,1,dep,2AFC - 4 pictures,3502663,32,wug,high,1603.45999999982,3,0,mismatch-type1,pilot2
10975,1,dep,2AFC - 4 pictures,3528246,2,dep,high,2782.79499999189,3,1,match,pilot2
11025,1,dep,2AFC - 4 pictures,3517616,51,tob,low,1122.09000001894,2,0,mismatch-type1,pilot2
11025,1,dep,2AFC - 4 pictures,3528252,5,tob,low,2055.21500000032,2,0,mismatch-type1,pilot2
11025,1,dep,2AFC - 4 pictures,3518198,49,tob,low,2145.00000001863,2,0,mismatch-type1,pilot2
11025,1,dep,2AFC - 4 pictures,3517616,6,tob,low,1514.7649999999,2,0,mismatch-type1,pilot2
11025,1,dep,2AFC - 4 pictures,3528252,42,tob,low,1668.66500000469,2,0,mismatch-type1,pilot2
11025,1,dep,2AFC - 4 pictures,3518198,11,tob,low,1962.99999998882,2,0,mismatch-type1,pilot2
11025,1,dep,2AFC - 4 pictures,3517616,47,wug,low,2069.40000000759,2,0,mismatch-type2,pilot2
11075,1,dep,2AFC - 4 pictures,3502663,52,dep,high,2687.28999999986,3,1,match,pilot2
11075,1,dep,2AFC - 4 pictures,3528247,43,dep,high,2093.11000001617,3,1,match,pilot2
11075,1,dep,2AFC - 4 pictures,3528246,4,dep,high,1643.54999999341,3,1,match,pilot2
11175,1,dep,2AFC - 4 pictures,3528273,28,dep,high,1584.20000015758,1,1,match,pilot2
11175,1,dep,2AFC - 4 pictures,3517626,35,dep,high,1453.9999999979,1,1,match,pilot2
11175,1,dep,2AFC - 4 pictures,3502650,11,dep,high,1599.84999999983,1,1,match,pilot2
11225,1,dep,2AFC - 4 pictures,3517616,45,tob,low,1234.64999999851,2,0,mismatch-type1,pilot2
11225,1,dep,2AFC - 4 pictures,3528247,9,dep,low,1614.46499999147,3,1,match,pilot2
11225,1,dep,2AFC - 4 pictures,3528252,22,tob,low,2922.58000001311,2,0,mismatch-type1,pilot2
11225,1,dep,2AFC - 4 pictures,3518198,23,tob,low,1296.0000000312,2,0,mismatch-type1,pilot2
11225,1,dep,2AFC - 4 pictures,3528246,26,dep,low,2326.1050000001,3,1,match,pilot2
11225,1,dep,2AFC - 4 pictures,3502663,40,dep,low,1406.94499999975,3,1,match,pilot2
11275,1,dep,2AFC - 4 pictures,3518198,17,dep,high,1947.00000004377,2,1,match,pilot2
11275,1,dep,2AFC - 4 pictures,3528252,41,dep,high,2071.1649999721,2,1,match,pilot2
11325,1,dep,2AFC - 4 pictures,3528247,54,tob,low,1997.08999998984,3,0,mismatch-type1,pilot2
11425,1,dep,2AFC - 4 pictures,3518198,44,tob,low,1408.9999999851,2,0,mismatch-type1,pilot2
11425,1,dep,2AFC - 4 pictures,3517616,27,tob,low,1718.86500000255,2,0,mismatch-type1,pilot2
11425,1,dep,2AFC - 4 pictures,3528252,20,tob,low,2055.70999998599,2,0,mismatch-type1,pilot2
11425,1,dep,2AFC - 4 pictures,3517626,47,tob,low,1621.00000001374,1,0,mismatch-type1,pilot2
11525,1,dep,2AFC - 4 pictures,3502663,41,dep,low,1415.94499999975,3,1,match,pilot2
11525,1,dep,2AFC - 4 pictures,3528246,34,dep,low,1606.92500000005,3,1,match,pilot2
11575,1,dep,2AFC - 4 pictures,3528252,39,dep,high,1311.0400000005,2,1,match,pilot2
11625,1,dep,2AFC - 4 pictures,3528247,23,tob,low,2295.12500000419,3,0,mismatch-type1,pilot2
11625,1,dep,2AFC - 4 pictures,3517626,38,tob,low,1263.00000000629,1,0,mismatch-type1,pilot2
11625,1,dep,2AFC - 4 pictures,3528247,56,tob,low,2667.46999998577,3,0,mismatch-type1,pilot2
11625,1,dep,2AFC - 4 pictures,3518198,7,tob,low,1768.00000004005,2,0,mismatch-type1,pilot2
11625,1,dep,2AFC - 4 pictures,3528247,35,tob,low,2066.91999998293,3,0,mismatch-type1,pilot2
11625,1,dep,2AFC - 4 pictures,3528273,26,tob,low,2789.94999988936,1,0,mismatch-type1,pilot2
11625,1,dep,2AFC - 4 pictures,3517616,40,tob,low,1247.14999998105,2,0,mismatch-type1,pilot2
11625,1,dep,2AFC - 4 pictures,3528247,41,tob,low,1656.27499998664,3,0,mismatch-type1,pilot2
11725,1,dep,2AFC - 4 pictures,3517616,46,wug,low,1306.22500000754,2,0,mismatch-type2,pilot2
11825,1,dep,2AFC - 4 pictures,3517626,55,tob,low,1075.00000001164,1,0,mismatch-type1,pilot2
11825,1,dep,2AFC - 4 pictures,3502650,52,tob,low,1205.41000000003,1,0,mismatch-type1,pilot2
11875,1,dep,2AFC - 4 pictures,3517626,2,wug,high,2125,1,0,mismatch-type1,pilot2
11925,1,dep,2AFC - 4 pictures,3528246,11,dep,low,2658.70500000892,3,1,match,pilot2
11975,1,dep,2AFC - 4 pictures,3528273,5,dep,high,3358.20500017144,1,1,match,pilot2
11975,1,dep,2AFC - 4 pictures,3502650,18,dep,high,1930.53499999996,1,1,match,pilot2
11975,1,dep,2AFC - 4 pictures,3517626,17,dep,high,2489.0000000014,1,1,match,pilot2
11975,1,dep,2AFC - 4 pictures,3528252,25,dep,high,1514.41500004148,2,1,match,pilot2
12075,1,dep,2AFC - 4 pictures,3517626,21,dep,high,2646.99999999721,1,1,match,pilot2
12075,1,dep,2AFC - 4 pictures,3528273,11,dep,high,1919.88499998115,1,1,match,pilot2
12075,1,dep,2AFC - 4 pictures,3502650,46,dep,high,1960.5100000001,1,1,match,pilot2
12075,1,dep,2AFC - 4 pictures,3528252,34,dep,high,2248.0799999903,2,1,match,pilot2
12125,1,dep,2AFC - 4 pictures,3502663,24,dep,low,1014.71499999979,3,1,match,pilot2
12125,1,dep,2AFC - 4 pictures,3528246,44,dep,low,1869.87999999837,3,1,match,pilot2
12175,1,dep,2AFC - 4 pictures,3518198,18,wug,high,1635.00000000931,2,0,mismatch-type1,pilot2
12225,1,dep,2AFC - 4 pictures,3502650,37,tob,low,1765.92000000004,1,0,mismatch-type1,pilot2
12225,1,dep,2AFC - 4 pictures,3528273,17,tob,low,1356.11500008963,1,0,mismatch-type1,pilot2
12225,1,dep,2AFC - 4 pictures,3517626,45,tob,low,1328.00000000861,1,0,mismatch-type1,pilot2
12275,1,dep,2AFC - 4 pictures,3517626,34,wug,high,1502.99999999697,1,0,mismatch-type1,pilot2
12325,1,dep,2AFC - 4 pictures,3517626,54,tob,low,2024.00000000489,1,0,mismatch-type1,pilot2
12325,1,dep,2AFC - 4 pictures,3502650,30,tob,low,1884.93500000004,1,0,mismatch-type1,pilot2
12325,1,dep,2AFC - 4 pictures,3528273,3,tob,low,2370.26500003412,1,0,mismatch-type1,pilot2
12325,1,dep,2AFC - 4 pictures,3502663,12,dep,low,1122.37000000005,3,1,match,pilot2
12325,1,dep,2AFC - 4 pictures,3528246,30,dep,low,2380.4999999993,3,1,match,pilot2
12425,1,dep,2AFC - 4 pictures,3502650,39,tob,low,1779.08499999988,1,0,mismatch-type1,pilot2
12425,1,dep,2AFC - 4 pictures,3502650,42,tob,low,2166.45500000005,1,0,mismatch-type1,pilot2
12425,1,dep,2AFC - 4 pictures,3517626,16,tob,low,1321.00000002538,1,0,mismatch-type1,pilot2
12475,1,dep,2AFC - 4 pictures,3518198,5,wug,high,1885.00000000931,2,0,mismatch-type1,pilot2
12525,1,dep,2AFC - 4 pictures,3517616,9,dep,low,1606.96000000462,2,1,match,pilot2
12575,1,dep,2AFC - 4 pictures,3517626,27,wug,high,1752.99999999697,1,0,mismatch-type1,pilot2
12675,1,dep,2AFC - 4 pictures,3517626,36,dep,high,2502.99999999697,1,1,match,pilot2
12675,1,dep,2AFC - 4 pictures,3528273,34,dep,high,1583.0900000874,1,1,match,pilot2
12675,1,dep,2AFC - 4 pictures,3502650,56,dep,high,1874.54500000013,1,1,match,pilot2
12775,1,dep,2AFC - 4 pictures,3502650,54,dep,high,2591.905,1,1,match,pilot2
12775,1,dep,2AFC - 4 pictures,3517626,42,dep,high,1505.99999999395,1,1,match,pilot2
12775,1,dep,2AFC - 4 pictures,3528273,7,dep,high,2247.90999991819,1,1,match,pilot2
12775,1,dep,2AFC - 4 pictures,3528273,6,dep,high,1725.79500009306,1,1,match,pilot2
12775,1,dep,2AFC - 4 pictures,3502650,8,dep,high,1930.22499999983,1,1,match,pilot2
12775,1,dep,2AFC - 4 pictures,3517626,39,dep,high,2168.99999999441,1,1,match,pilot2
12875,1,dep,2AFC - 4 pictures,3528246,10,dep,high,2281.74500000023,3,1,match,pilot2
12875,1,dep,2AFC - 4 pictures,3518198,36,dep,high,3106.00000002887,2,1,match,pilot2
12875,1,dep,2AFC - 4 pictures,3528247,18,dep,high,1916.13500000676,3,1,match,pilot2
12875,1,dep,2AFC - 4 pictures,3528252,49,dep,high,2200.87499998044,2,1,match,pilot2
12975,1,dep,2AFC - 4 pictures,3502663,11,dep,high,2453.28500000005,3,1,match,pilot2
12975,1,dep,2AFC - 4 pictures,3528247,30,dep,high,2179.76999998791,3,1,match,pilot2
12975,1,dep,2AFC - 4 pictures,3528246,37,dep,high,1851.67499999807,3,1,match,pilot2
13075,1,dep,2AFC - 4 pictures,3518198,46,dep,high,2895.00000001863,2,1,match,pilot2
13075,1,dep,2AFC - 4 pictures,3502650,53,dep,high,1792.93000000008,1,1,match,pilot2
13075,1,dep,2AFC - 4 pictures,3517616,3,dep,high,1180.96500000684,2,1,match,pilot2
13075,1,dep,2AFC - 4 pictures,3528273,36,dep,high,1873.63499985076,1,1,match,pilot2
13075,1,dep,2AFC - 4 pictures,3528252,14,dep,high,1708.29000003869,2,1,match,pilot2
13375,1,dep,2AFC - 4 pictures,3502663,44,dep,high,2019.60000000009,3,1,match,pilot2
13375,1,dep,2AFC - 4 pictures,3528246,7,dep,high,1258.56499999645,3,1,match,pilot2
13375,1,dep,2AFC - 4 pictures,3528247,5,dep,high,1810.41999999434,3,1,match,pilot2
13475,1,dep,2AFC - 4 pictures,3528252,37,dep,high,1237.16499999864,2,1,match,pilot2
13475,1,dep,2AFC - 4 pictures,3528247,14,dep,high,2030.88000000571,3,1,match,pilot2
13475,1,dep,2AFC - 4 pictures,3517616,13,dep,high,1698.59000001452,2,1,match,pilot2
13475,1,dep,2AFC - 4 pictures,3518198,38,dep,high,1179.99999999302,2,1,match,pilot2
13475,1,dep,2AFC - 4 pictures,3502663,53,dep,high,1072.52000000016,3,1,match,pilot2
13475,1,dep,2AFC - 4 pictures,3528246,24,dep,high,2199.62499999383,3,1,match,pilot2
20125,2,wug,2AFC - 4 pictures,3528247,37,tob,low,1859.145000024,3,0,mismatch-type2,pilot2
20125,2,wug,2AFC - 4 pictures,3528247,6,wug,low,2747.41999999969,3,1,match,pilot2
20125,2,wug,2AFC - 4 pictures,3528246,46,wug,low,2996.07999999716,3,1,match,pilot2
20125,2,wug,2AFC - 4 pictures,3502663,10,wug,low,1807.66500000027,3,1,match,pilot2
20225,2,wug,2AFC - 4 pictures,3518198,19,dep,low,2347.99999999814,2,0,mismatch-type1,pilot2
20225,2,wug,2AFC - 4 pictures,3502663,31,tob,low,3313.34500000003,3,0,mismatch-type2,pilot2
20225,2,wug,2AFC - 4 pictures,3528252,21,dep,low,1619.29000000237,2,0,mismatch-type1,pilot2
20225,2,wug,2AFC - 4 pictures,3528246,39,tob,low,2335.78500000294,3,0,mismatch-type2,pilot2
20275,2,wug,2AFC - 4 pictures,3528246,22,wug,high,3276.079999996,3,1,match,pilot2
20275,2,wug,2AFC - 4 pictures,3528247,55,wug,high,1637.61499998509,3,1,match,pilot2
20325,2,wug,2AFC - 4 pictures,3517626,32,dep,low,1878.99999998626,1,0,mismatch-type1,pilot2
20325,2,wug,2AFC - 4 pictures,3502650,12,dep,low,1870.75000000004,1,0,mismatch-type1,pilot2
20325,2,wug,2AFC - 4 pictures,3528273,15,dep,low,2659.82000017539,1,0,mismatch-type1,pilot2
20325,2,wug,2AFC - 4 pictures,3528247,42,dep,low,2882.15499999933,3,0,mismatch-type1,pilot2
20375,2,wug,2AFC - 4 pictures,3502650,7,wug,high,1237.27500000018,1,1,match,pilot2
20425,2,wug,2AFC - 4 pictures,3502663,6,wug,low,3079.99000000018,3,1,match,pilot2
20425,2,wug,2AFC - 4 pictures,3518198,20,wug,low,2812.00000003446,2,1,match,pilot2
20425,2,wug,2AFC - 4 pictures,3528247,29,wug,low,2278.13500000047,3,1,match,pilot2
20425,2,wug,2AFC - 4 pictures,3528246,42,wug,low,2935.51499999012,3,1,match,pilot2
20425,2,wug,2AFC - 4 pictures,3528252,11,dep,low,1078.08000000659,2,0,mismatch-type1,pilot2
20475,2,wug,2AFC - 4 pictures,3517616,14,wug,high,1572.99500002409,2,1,match,pilot2
20475,2,wug,2AFC - 4 pictures,3528252,4,wug,high,1138.75000004191,2,1,match,pilot2
20475,2,wug,2AFC - 4 pictures,3518198,41,wug,high,966.999999945983,2,1,match,pilot2
20525,2,wug,2AFC - 4 pictures,3528273,50,tob,low,3416.49500001222,1,0,mismatch-type2,pilot2
20525,2,wug,2AFC - 4 pictures,3518198,22,wug,low,1532.00000000652,2,1,match,pilot2
20575,2,wug,2AFC - 4 pictures,3528246,49,wug,high,2671.94500000915,3,1,match,pilot2
20575,2,wug,2AFC - 4 pictures,3528247,50,wug,high,2159.58000000683,3,1,match,pilot2
20575,2,wug,2AFC - 4 pictures,3502663,47,wug,high,1714.87000000026,3,1,match,pilot2
20625,2,wug,2AFC - 4 pictures,3502663,5,wug,low,2463.58000000009,3,1,match,pilot2
20625,2,wug,2AFC - 4 pictures,3502650,3,dep,low,3112.19499999993,1,0,mismatch-type1,pilot2
20625,2,wug,2AFC - 4 pictures,3528273,24,dep,low,1780.92000004835,1,0,mismatch-type1,pilot2
20625,2,wug,2AFC - 4 pictures,3528246,12,wug,low,2537.98500000266,3,1,match,pilot2
20625,2,wug,2AFC - 4 pictures,3528247,47,wug,low,1742.53000001772,3,1,match,pilot2
20625,2,wug,2AFC - 4 pictures,3517626,37,dep,low,1432.0000000007,1,0,mismatch-type1,pilot2
20675,2,wug,2AFC - 4 pictures,3528246,17,wug,high,2751.74500000139,3,1,match,pilot2
20675,2,wug,2AFC - 4 pictures,3502650,35,wug,high,1696.12000000005,1,1,match,pilot2
20675,2,wug,2AFC - 4 pictures,3528247,34,wug,high,1553.74000000302,3,1,match,pilot2
20675,2,wug,2AFC - 4 pictures,3502663,18,wug,high,2530.8100000002,3,1,match,pilot2
20725,2,wug,2AFC - 4 pictures,3517626,44,tob,low,1483.99999999674,1,0,mismatch-type2,pilot2
20725,2,wug,2AFC - 4 pictures,3528246,35,tob,low,2341.35499999684,3,0,mismatch-type2,pilot2
20725,2,wug,2AFC - 4 pictures,3518198,31,wug,low,2579.00000002701,2,1,match,pilot2
20775,2,wug,2AFC - 4 pictures,3502650,33,tob,high,928.414999999863,1,0,mismatch-type1,pilot2
20825,2,wug,2AFC - 4 pictures,3528246,53,wug,low,2497.30499999714,3,1,match,pilot2
20825,2,wug,2AFC - 4 pictures,3518198,33,wug,low,1847.00000000885,2,1,match,pilot2
20825,2,wug,2AFC - 4 pictures,3502663,30,wug,low,2086.40499999956,3,1,match,pilot2
20825,2,wug,2AFC - 4 pictures,3518198,34,wug,low,2632.00000004144,2,1,match,pilot2
20825,2,wug,2AFC - 4 pictures,3528247,20,wug,low,2377.56500000251,3,1,match,pilot2
20875,2,wug,2AFC - 4 pictures,3518198,2,wug,high,2476.00000002421,2,1,match,pilot2
20875,2,wug,2AFC - 4 pictures,3528252,38,wug,high,1160.83499998786,2,1,match,pilot2
20875,2,wug,2AFC - 4 pictures,3517616,12,dep,high,1548.19000000134,2,0,mismatch-type2,pilot2
20875,2,wug,2AFC - 4 pictures,3517616,18,wug,high,1400.70499997819,2,1,match,pilot2
20875,2,wug,2AFC - 4 pictures,3518198,24,tob,high,3229.99999998137,2,0,mismatch-type1,pilot2
20925,2,wug,2AFC - 4 pictures,3502663,15,wug,low,1215.28499999976,3,1,match,pilot2
20925,2,wug,2AFC - 4 pictures,3528246,8,wug,low,2229.13500000141,3,1,match,pilot2
20925,2,wug,2AFC - 4 pictures,3502650,14,dep,low,2263.84000000008,1,0,mismatch-type1,pilot2
20925,2,wug,2AFC - 4 pictures,3528247,36,wug,low,1886.09499999438,3,1,match,pilot2
20925,2,wug,2AFC - 4 pictures,3517626,24,dep,low,3322.00000001467,1,0,mismatch-type1,pilot2
21025,2,wug,2AFC - 4 pictures,3518198,39,wug,low,1525.00000002328,2,1,match,pilot2
21025,2,wug,2AFC - 4 pictures,3517626,12,wug,low,2040.99999999744,1,1,match,pilot2
21025,2,wug,2AFC - 4 pictures,3517626,41,wug,low,1589.00000000722,1,1,match,pilot2
21025,2,wug,2AFC - 4 pictures,3528252,9,dep,low,1247.58000002475,2,0,mismatch-type1,pilot2
21075,2,wug,2AFC - 4 pictures,3528246,51,wug,high,1690.67500000529,3,1,match,pilot2
21075,2,wug,2AFC - 4 pictures,3502663,43,wug,high,1945.745,3,1,match,pilot2
21075,2,wug,2AFC - 4 pictures,3528247,33,wug,high,1797.9350000096,3,1,match,pilot2
21125,2,wug,2AFC - 4 pictures,3502650,2,dep,low,3211.76500000001,1,0,mismatch-type1,pilot2
21125,2,wug,2AFC - 4 pictures,3528273,18,dep,low,3159.08999997191,1,0,mismatch-type1,pilot2
21175,2,wug,2AFC - 4 pictures,3517626,19,wug,high,1676.99999999604,1,1,match,pilot2
21175,2,wug,2AFC - 4 pictures,3502650,25,wug,high,787.465000000113,1,1,match,pilot2
21275,2,wug,2AFC - 4 pictures,3528273,35,bim,control_high,2539.24500010908,1,0,errorControl,pilot2
21325,2,wug,2AFC - 4 pictures,3528273,22,dep,low,2281.79499995895,1,0,mismatch-type1,pilot2
21325,2,wug,2AFC - 4 pictures,3502650,27,dep,low,1619.90999999989,1,0,mismatch-type1,pilot2
21375,2,wug,2AFC - 4 pictures,3528252,55,wug,high,1372.28999997023,2,1,match,pilot2
21375,2,wug,2AFC - 4 pictures,3517616,52,wug,high,1502.48500000453,2,1,match,pilot2
21425,2,wug,2AFC - 4 pictures,3528252,1,dep,low,1483.87500003446,2,0,mismatch-type1,pilot2
21425,2,wug,2AFC - 4 pictures,3528252,51,dep,low,1325.95999998739,2,0,mismatch-type1,pilot2
21525,2,wug,2AFC - 4 pictures,3528273,41,dep,low,2788.44000003301,1,0,mismatch-type1,pilot2
21525,2,wug,2AFC - 4 pictures,3528247,44,wug,low,2794.10500000813,3,1,match,pilot2
21525,2,wug,2AFC - 4 pictures,3517626,25,dep,low,3057.0000000007,1,0,mismatch-type1,pilot2
21525,2,wug,2AFC - 4 pictures,3502663,20,wug,low,1967.7499999998,3,1,match,pilot2
21525,2,wug,2AFC - 4 pictures,3528246,20,wug,low,2223.11999999511,3,1,match,pilot2
21625,2,wug,2AFC - 4 pictures,3502663,38,wug,low,2784.80499999976,3,1,match,pilot2
21625,2,wug,2AFC - 4 pictures,3528252,44,dep,low,1696.6249999823,2,0,mismatch-type1,pilot2
21625,2,wug,2AFC - 4 pictures,3528246,28,wug,low,1910.10000000824,3,1,match,pilot2
21625,2,wug,2AFC - 4 pictures,3528246,36,tob,low,2271.30000000761,3,0,mismatch-type2,pilot2
21675,2,wug,2AFC - 4 pictures,3517616,26,wug,high,2198.39500001399,2,1,match,pilot2
21675,2,wug,2AFC - 4 pictures,3528252,30,wug,high,1507.20999995247,2,1,match,pilot2
21675,2,wug,2AFC - 4 pictures,3518198,26,wug,high,2300.99999997765,2,1,match,pilot2
21725,2,wug,2AFC - 4 pictures,3502663,25,wug,low,1104.58999999991,3,1,match,pilot2
21725,2,wug,2AFC - 4 pictures,3528252,52,dep,low,1393.62500002608,2,0,mismatch-type1,pilot2
21725,2,wug,2AFC - 4 pictures,3528247,19,wug,low,2402.65000000363,3,1,match,pilot2
21725,2,wug,2AFC - 4 pictures,3528246,56,wug,low,2878.37500000023,3,1,match,pilot2
21725,2,wug,2AFC - 4 pictures,3518198,3,wug,low,1997.99999996321,2,1,match,pilot2
21875,2,wug,2AFC - 4 pictures,3502650,17,wug,high,1115.59499999997,1,1,match,pilot2
21975,2,wug,2AFC - 4 pictures,3502663,17,dep,high,1857.35999999997,3,0,mismatch-type2,pilot2
22075,2,wug,2AFC - 4 pictures,3528252,3,wug,high,1324.87499999115,2,1,match,pilot2
22075,2,wug,2AFC - 4 pictures,3517616,54,wug,high,2055.04500001553,2,1,match,pilot2
22075,2,wug,2AFC - 4 pictures,3517616,24,dep,high,1183.93999998807,2,0,mismatch-type2,pilot2
22125,2,wug,2AFC - 4 pictures,3528252,45,dep,low,1603.41999999946,2,0,mismatch-type1,pilot2
22125,2,wug,2AFC - 4 pictures,3528273,55,dep,low,1625.25500007905,1,0,mismatch-type1,pilot2
22175,2,wug,2AFC - 4 pictures,3517616,25,dep,high,2061.6849999933,2,0,mismatch-type2,pilot2
22175,2,wug,2AFC - 4 pictures,3517626,48,wug,high,1122.00000000303,1,1,match,pilot2
22175,2,wug,2AFC - 4 pictures,3528273,38,wug,high,2941.71000015922,1,1,match,pilot2
22175,2,wug,2AFC - 4 pictures,3502650,16,wug,high,1208.77999999994,1,1,match,pilot2
22275,2,wug,2AFC - 4 pictures,3528247,15,wug,high,1032.00499998638,3,1,match,pilot2
22275,2,wug,2AFC - 4 pictures,3528246,32,wug,high,2353.13000000315,3,1,match,pilot2
22325,2,wug,2AFC - 4 pictures,3528273,31,wug,low,3078.38999992236,1,1,match,pilot2
22325,2,wug,2AFC - 4 pictures,3518198,54,wug,low,2726.00000002421,2,1,match,pilot2
22325,2,wug,2AFC - 4 pictures,3517626,5,wug,low,3194.0000000177,1,1,match,pilot2
22425,2,wug,2AFC - 4 pictures,3517626,15,wug,low,3026.00000001257,1,1,match,pilot2
22475,2,wug,2AFC - 4 pictures,3528252,18,wug,high,1581.16499998141,2,1,match,pilot2
22475,2,wug,2AFC - 4 pictures,3528247,28,wug,high,1124.32999999146,3,1,match,pilot2
22475,2,wug,2AFC - 4 pictures,3518198,42,wug,high,1744.99999999534,2,1,match,pilot2
22475,2,wug,2AFC - 4 pictures,3518198,6,wug,high,2781.00000001723,2,1,match,pilot2
22475,2,wug,2AFC - 4 pictures,3517616,7,wug,high,1376.99499999871,2,1,match,pilot2
22475,2,wug,2AFC - 4 pictures,3528252,27,wug,high,1012.8750000149,2,1,match,pilot2
22875,2,wug,2AFC - 4 pictures,3517616,23,dep,high,1197.76999999885,2,0,mismatch-type2,pilot2
22875,2,wug,2AFC - 4 pictures,3518198,12,dep,high,2580.0000000163,2,0,mismatch-type2,pilot2
22975,2,wug,2AFC - 4 pictures,3502663,42,wug,high,2841.50999999975,3,1,match,pilot2
22975,2,wug,2AFC - 4 pictures,3528247,53,wug,high,996.245000016643,3,1,match,pilot2
22975,2,wug,2AFC - 4 pictures,3528246,41,wug,high,2729.65999999724,3,1,match,pilot2
23075,2,wug,2AFC - 4 pictures,3517616,29,dep,high,1524.99999999418,2,0,mismatch-type2,pilot2
23175,2,wug,2AFC - 4 pictures,3528252,40,wug,high,1235.67000002367,2,1,match,pilot2
23175,2,wug,2AFC - 4 pictures,3517626,56,wug,high,2361.00000000442,1,1,match,pilot2
23175,2,wug,2AFC - 4 pictures,3518198,40,wug,high,2370.99999998463,2,1,match,pilot2
23175,2,wug,2AFC - 4 pictures,3517616,2,wug,high,1719.71500001382,2,1,match,pilot2
23175,2,wug,2AFC - 4 pictures,3502650,15,wug,high,2685.0649999999,1,1,match,pilot2
23275,2,wug,2AFC - 4 pictures,3502650,22,wug,high,1360.83499999995,1,1,match,pilot2
23275,2,wug,2AFC - 4 pictures,3517626,10,wug,high,1755.00000000466,1,1,match,pilot2
23475,2,wug,2AFC - 4 pictures,3528247,8,wug,high,1568.34499997785,3,1,match,pilot2
23475,2,wug,2AFC - 4 pictures,3502663,36,wug,high,2007.19000000026,3,1,match,pilot2
23475,2,wug,2AFC - 4 pictures,3528246,13,wug,high,2058.16499999491,3,1,match,pilot2
23575,2,wug,2AFC - 4 pictures,3502650,41,wug,high,1155.1750000001,1,1,match,pilot2
23575,2,wug,2AFC - 4 pictures,3528273,44,wug,high,1338.05500017479,1,1,match,pilot2
23575,2,wug,2AFC - 4 pictures,3517626,11,wug,high,1897.9999999865,1,1,match,pilot2
23575,2,wug,2AFC - 4 pictures,3502663,1,tob,high,2293.5650000004,3,0,mismatch-type1,pilot2
30125,3,tob,2AFC - 4 pictures,3502663,54,tob,low,2428.31999999998,3,1,match,pilot2
30125,3,tob,2AFC - 4 pictures,3528246,16,tob,low,2643.20999999472,3,1,match,pilot2
30175,3,tob,2AFC - 4 pictures,3518198,4,tob,high,1665.99999996834,2,1,match,pilot2
30175,3,tob,2AFC - 4 pictures,3528252,56,tob,high,2349.28999998374,2,1,match,pilot2
30175,3,tob,2AFC - 4 pictures,3517616,28,tob,high,1458.92000000458,2,1,match,pilot2
30225,3,tob,2AFC - 4 pictures,3517626,43,wug,low,1475.00000000582,1,0,mismatch-type1,pilot2
30225,3,tob,2AFC - 4 pictures,3517616,31,dep,low,2065.75999999768,2,0,mismatch-type2,pilot2
30225,3,tob,2AFC - 4 pictures,3502650,29,wug,low,1805.23000000017,1,0,mismatch-type1,pilot2
30225,3,tob,2AFC - 4 pictures,3528273,37,wug,low,2579.72999988124,1,0,mismatch-type1,pilot2
30225,3,tob,2AFC - 4 pictures,3517616,41,dep,low,2181.4000000013,2,0,mismatch-type2,pilot2
30275,3,tob,2AFC - 4 pictures,3502663,2,tob,high,1743.43999999974,3,1,match,pilot2
30275,3,tob,2AFC - 4 pictures,3528246,9,tob,high,1770.17000000342,3,1,match,pilot2
30275,3,tob,2AFC - 4 pictures,3528247,25,tob,high,2621.62499999977,3,1,match,pilot2
30325,3,tob,2AFC - 4 pictures,3528252,2,tob,low,2716.4599999669,2,1,match,pilot2
30425,3,tob,2AFC - 4 pictures,3502663,4,tob,low,2142.15000000013,3,1,match,pilot2
30425,3,tob,2AFC - 4 pictures,3502650,36,wug,low,1798.5450000001,1,0,mismatch-type1,pilot2
30425,3,tob,2AFC - 4 pictures,3502663,8,tob,low,1784.67000000001,3,1,match,pilot2
30425,3,tob,2AFC - 4 pictures,3528273,29,wug,low,3133.35500005633,1,0,mismatch-type1,pilot2
30475,3,tob,2AFC - 4 pictures,3517616,39,tob,high,1431.37999999453,2,1,match,pilot2
30475,3,tob,2AFC - 4 pictures,3518198,35,tob,high,1324.99999995343,2,1,match,pilot2
30475,3,tob,2AFC - 4 pictures,3528252,8,tob,high,1052.16999998083,2,1,match,pilot2
30525,3,tob,2AFC - 4 pictures,3528273,4,wug,low,1245.45500008389,1,0,mismatch-type1,pilot2
30525,3,tob,2AFC - 4 pictures,3502650,51,wug,low,1208.25000000012,1,0,mismatch-type1,pilot2
30525,3,tob,2AFC - 4 pictures,3517626,51,wug,low,1568.99999998859,1,0,mismatch-type1,pilot2
30525,3,tob,2AFC - 4 pictures,3517616,36,dep,low,2142.55499999854,2,0,mismatch-type2,pilot2
30575,3,tob,2AFC - 4 pictures,3517626,40,bim,control_high,1565.00000000233,1,0,errorControl,pilot2
30725,3,tob,2AFC - 4 pictures,3528252,10,wug,low,1115.79500004882,2,0,mismatch-type1,pilot2
30725,3,tob,2AFC - 4 pictures,3502663,56,tob,low,2239.66500000007,3,1,match,pilot2
30725,3,tob,2AFC - 4 pictures,3528246,14,tob,low,2969.66499999689,3,1,match,pilot2
30725,3,tob,2AFC - 4 pictures,3517616,15,wug,low,843.874999991385,2,0,mismatch-type1,pilot2
30775,3,tob,2AFC - 4 pictures,3528273,10,tob,high,2096.03499993682,1,1,match,pilot2
30775,3,tob,2AFC - 4 pictures,3502650,10,tob,high,2007.30500000009,1,1,match,pilot2
30775,3,tob,2AFC - 4 pictures,3517626,31,tob,high,1804.00000000373,1,1,match,pilot2
30925,3,tob,2AFC - 4 pictures,3528273,52,wug,low,2859.75999990478,1,0,mismatch-type1,pilot2
30925,3,tob,2AFC - 4 pictures,3517616,44,wug,low,1630.93499999377,2,0,mismatch-type1,pilot2
30925,3,tob,2AFC - 4 pictures,3517626,20,wug,low,2083.00000001327,1,0,mismatch-type1,pilot2
30925,3,tob,2AFC - 4 pictures,3528252,29,wug,low,2112.95999999857,2,0,mismatch-type1,pilot2
30925,3,tob,2AFC - 4 pictures,3528252,35,wug,low,1032.5399999856,2,0,mismatch-type1,pilot2
31025,3,tob,2AFC - 4 pictures,3517616,50,dep,low,2139.5799999882,2,0,mismatch-type2,pilot2
31025,3,tob,2AFC - 4 pictures,3528247,17,dep,low,2391.51499999571,3,0,mismatch-type2,pilot2
31025,3,tob,2AFC - 4 pictures,3518198,51,dep,low,1979.00000005029,2,0,mismatch-type2,pilot2
31025,3,tob,2AFC - 4 pictures,3528247,31,dep,low,3285.44499998679,3,0,mismatch-type2,pilot2
31125,3,tob,2AFC - 4 pictures,3517616,30,dep,low,1445.31499998993,2,0,mismatch-type2,pilot2
31125,3,tob,2AFC - 4 pictures,3528273,45,dep,low,1995.34999998286,1,0,mismatch-type2,pilot2
31125,3,tob,2AFC - 4 pictures,3528247,3,wug,low,1173.71500001173,3,0,mismatch-type1,pilot2
31125,3,tob,2AFC - 4 pictures,3517616,17,dep,low,1250.82499999553,2,0,mismatch-type2,pilot2
31175,3,tob,2AFC - 4 pictures,3528252,16,tob,high,2495.57999998797,2,1,match,pilot2
31175,3,tob,2AFC - 4 pictures,3518198,16,tob,high,1210.00000002095,2,1,match,pilot2
31175,3,tob,2AFC - 4 pictures,3502663,3,tob,high,2056.51000000034,3,1,match,pilot2
31175,3,tob,2AFC - 4 pictures,3528273,46,wug,high,2900.59500001371,1,0,mismatch-type2,pilot2
31175,3,tob,2AFC - 4 pictures,3517616,5,tob,high,1326.28999999724,2,1,match,pilot2
31175,3,tob,2AFC - 4 pictures,3528246,50,tob,high,929.839999997057,3,1,match,pilot2
31175,3,tob,2AFC - 4 pictures,3528273,43,tob,high,2546.13500018604,1,1,match,pilot2
31175,3,tob,2AFC - 4 pictures,3528247,45,tob,high,1605.58499998297,3,1,match,pilot2
31175,3,tob,2AFC - 4 pictures,3517626,46,tob,high,1541.99999998673,1,1,match,pilot2
31225,3,tob,2AFC - 4 pictures,3528252,19,wug,low,1605.00500001945,2,0,mismatch-type1,pilot2
31325,3,tob,2AFC - 4 pictures,3517626,28,dep,low,1948.99999999325,1,0,mismatch-type2,pilot2
31325,3,tob,2AFC - 4 pictures,3528252,15,wug,low,1445.91999996919,2,0,mismatch-type1,pilot2
31325,3,tob,2AFC - 4 pictures,3502663,29,tob,low,2486.84000000003,3,1,match,pilot2
31325,3,tob,2AFC - 4 pictures,3517616,53,wug,low,1306.70500002452,2,0,mismatch-type1,pilot2
31375,3,tob,2AFC - 4 pictures,3528247,39,tob,high,1103.44999999506,3,1,match,pilot2
31375,3,tob,2AFC - 4 pictures,3502663,45,tob,high,1101.22499999989,3,1,match,pilot2
31375,3,tob,2AFC - 4 pictures,3502663,27,tob,high,1160.76499999962,3,1,match,pilot2
31375,3,tob,2AFC - 4 pictures,3528246,52,tob,high,1923.02499999641,3,1,match,pilot2
31375,3,tob,2AFC - 4 pictures,3517616,10,tob,high,2311.97000000975,2,1,match,pilot2
31375,3,tob,2AFC - 4 pictures,3528247,38,tob,high,1411.71000001486,3,1,match,pilot2
31375,3,tob,2AFC - 4 pictures,3528252,47,tob,high,2191.9549999875,2,1,match,pilot2
31375,3,tob,2AFC - 4 pictures,3517616,22,bim,control_high,1173.38500000187,2,0,errorControl,pilot2
31375,3,tob,2AFC - 4 pictures,3528246,47,tob,high,1749.86999999965,3,1,match,pilot2
31425,3,tob,2AFC - 4 pictures,3502650,50,wug,low,1732.50500000015,1,0,mismatch-type1,pilot2
31425,3,tob,2AFC - 4 pictures,3528246,29,tob,low,2866.89000000479,3,1,match,pilot2
31425,3,tob,2AFC - 4 pictures,3528246,27,tob,low,2559.08500000078,3,1,match,pilot2
31425,3,tob,2AFC - 4 pictures,3502663,9,tob,low,1267.06000000013,3,1,match,pilot2
31625,3,tob,2AFC - 4 pictures,3528252,24,wug,low,1361.2500000163,2,0,mismatch-type1,pilot2
31625,3,tob,2AFC - 4 pictures,3517616,35,wug,low,1765.48000000184,2,0,mismatch-type1,pilot2
31725,3,tob,2AFC - 4 pictures,3528252,6,wug,low,1297.21000004793,2,0,mismatch-type1,pilot2
31725,3,tob,2AFC - 4 pictures,3502650,43,wug,low,1354.35000000006,1,0,mismatch-type1,pilot2
31725,3,tob,2AFC - 4 pictures,3517616,43,wug,low,1722.69500000402,2,0,mismatch-type1,pilot2
31725,3,tob,2AFC - 4 pictures,3528273,20,wug,low,2862.9250000231,1,0,mismatch-type1,pilot2
31875,3,tob,2AFC - 4 pictures,3528246,1,tob,high,2545.58999999426,3,1,match,pilot2
31875,3,tob,2AFC - 4 pictures,3528247,22,tob,high,1825.1900000032,3,1,match,pilot2
31925,3,tob,2AFC - 4 pictures,3528247,52,dep,low,2192.86999999895,3,0,mismatch-type2,pilot2
31925,3,tob,2AFC - 4 pictures,3502663,21,dep,low,2502.69000000025,3,0,mismatch-type2,pilot2
31975,3,tob,2AFC - 4 pictures,3517626,33,tob,high,2130.99999999395,1,1,match,pilot2
31975,3,tob,2AFC - 4 pictures,3517616,8,dep,high,2517.0999999973,2,0,mismatch-type1,pilot2
31975,3,tob,2AFC - 4 pictures,3528273,49,tob,high,3348.29499991611,1,1,match,pilot2
31975,3,tob,2AFC - 4 pictures,3502650,45,tob,high,2757.33500000002,1,1,match,pilot2
32025,3,tob,2AFC - 4 pictures,3528252,28,wug,low,1483.04500000086,2,0,mismatch-type1,pilot2
32025,3,tob,2AFC - 4 pictures,3528273,13,tob,low,1554.13499986753,1,1,match,pilot2
32025,3,tob,2AFC - 4 pictures,3528247,49,dep,low,3283.65500000655,3,0,mismatch-type2,pilot2
32025,3,tob,2AFC - 4 pictures,3502650,19,tob,low,2088.94999999985,1,1,match,pilot2
32025,3,tob,2AFC - 4 pictures,3502650,48,tob,low,1038.00499999989,1,1,match,pilot2
32075,3,tob,2AFC - 4 pictures,3517616,21,tob,high,1168.39000000618,2,1,match,pilot2
32075,3,tob,2AFC - 4 pictures,3518198,43,tob,high,1360.99999997532,2,1,match,pilot2
32075,3,tob,2AFC - 4 pictures,3528252,7,tob,high,1583.87500001118,2,1,match,pilot2
32075,3,tob,2AFC - 4 pictures,3502650,5,tob,high,1072.85000000001,1,1,match,pilot2
32075,3,tob,2AFC - 4 pictures,3517616,19,tob,high,1480.54000001866,2,1,match,pilot2
32075,3,tob,2AFC - 4 pictures,3528252,13,tob,high,1350.6650000345,2,1,match,pilot2
32075,3,tob,2AFC - 4 pictures,3517626,14,tob,high,1953.9999999979,1,1,match,pilot2
32075,3,tob,2AFC - 4 pictures,3528273,39,tob,high,2056.44999979995,1,1,match,pilot2
32075,3,tob,2AFC - 4 pictures,3518198,10,tob,high,1625.99999998929,2,1,match,pilot2
32225,3,tob,2AFC - 4 pictures,3517626,49,wug,low,1987.00000002282,1,0,mismatch-type1,pilot2
32225,3,tob,2AFC - 4 pictures,3528273,53,wug,low,1141.80499990471,1,0,mismatch-type1,pilot2
32225,3,tob,2AFC - 4 pictures,3502650,38,wug,low,1162.20999999996,1,0,mismatch-type1,pilot2
32325,3,tob,2AFC - 4 pictures,3528273,1,wug,low,3265.74499998242,1,0,mismatch-type1,pilot2
32325,3,tob,2AFC - 4 pictures,3502650,44,wug,low,1353.57000000001,1,0,mismatch-type1,pilot2
32425,3,tob,2AFC - 4 pictures,3528247,16,dep,low,2799.52999998932,3,0,mismatch-type2,pilot2
32475,3,tob,2AFC - 4 pictures,3517626,50,tob,high,1317.00000001001,1,1,match,pilot2
32475,3,tob,2AFC - 4 pictures,3517616,49,wug,high,2243.43000000226,2,0,mismatch-type2,pilot2
32675,3,tob,2AFC - 4 pictures,3517626,1,tob,high,2904.99999999884,1,1,match,pilot2
32675,3,tob,2AFC - 4 pictures,3502663,22,tob,high,981.59500000019,3,1,match,pilot2
32675,3,tob,2AFC - 4 pictures,3528247,32,tob,high,1310.26500000735,3,1,match,pilot2
32675,3,tob,2AFC - 4 pictures,3528273,16,tob,high,3246.94500002079,1,1,match,pilot2
32675,3,tob,2AFC - 4 pictures,3502650,13,tob,high,1319.72000000019,1,1,match,pilot2
32675,3,tob,2AFC - 4 pictures,3528246,38,tob,high,2176.91999999806,3,1,match,pilot2
32775,3,tob,2AFC - 4 pictures,3528246,25,tob,high,1802.35500000708,3,1,match,pilot2
32775,3,tob,2AFC - 4 pictures,3517626,52,tob,high,1376.99999997858,1,1,match,pilot2
32775,3,tob,2AFC - 4 pictures,3528273,48,tob,high,2554.19500009157,1,1,match,pilot2
32775,3,tob,2AFC - 4 pictures,3518198,27,dep,high,1782.99999999581,2,0,mismatch-type1,pilot2
32775,3,tob,2AFC - 4 pictures,3528247,13,tob,high,1173.76000000513,3,1,match,pilot2
32775,3,tob,2AFC - 4 pictures,3502663,19,tob,high,1258.27000000027,3,1,match,pilot2
32775,3,tob,2AFC - 4 pictures,3517626,9,dep,high,1396.00000000792,1,0,mismatch-type1,pilot2
32775,3,tob,2AFC - 4 pictures,3502650,24,tob,high,976.004999999976,1,1,match,pilot2
32875,3,tob,2AFC - 4 pictures,3502650,49,tob,high,1751.29000000015,1,1,match,pilot2
32875,3,tob,2AFC - 4 pictures,3528273,54,tob,high,3269.91500006989,1,1,match,pilot2
32875,3,tob,2AFC - 4 pictures,3517626,18,tob,high,1907.00000000652,1,1,match,pilot2
33275,3,tob,2AFC - 4 pictures,3517616,55,tob,high,1084.63499997742,2,1,match,pilot2
33275,3,tob,2AFC - 4 pictures,3528252,17,tob,high,1506.37499999721,2,1,match,pilot2
33475,3,tob,2AFC - 4 pictures,3528247,12,tob,high,1224.51000000001,3,1,match,pilot2
33475,3,tob,2AFC - 4 pictures,3528246,55,tob,high,1301.2999999919,3,1,match,pilot2
33475,3,tob,2AFC - 4 pictures,3502663,35,tob,high,1001.02000000016,3,1,match,pilot2
33575,3,tob,2AFC - 4 pictures,3528252,33,tob,high,1338.41999998549,2,1,match,pilot2
33575,3,tob,2AFC - 4 pictures,3517616,33,tob,high,1565.36999999662,2,1,match,pilot2
33575,3,tob,2AFC - 4 pictures,3518198,25,tob,high,1853.99999999208,2,1,match,pilot2
bim1,4,bim,2AFC - 4 pictures,3502663,49,bim,control_high,1359.26500000004,3,1,match,pilot2
bim1,4,bim,2AFC - 4 pictures,3528246,15,bim,control_high,1040.61000001093,3,1,match,pilot2
bim1,4,bim,2AFC - 4 pictures,3528247,4,bim,control_high,1023.28500000294,3,1,match,pilot2
bim10,4,bim,2AFC - 4 pictures,3502663,48,bim,control_low,1115.89000000001,3,1,match,pilot2
bim10,4,bim,2AFC - 4 pictures,3528247,24,bim,control_low,1222.96499999356,3,1,match,pilot2
bim10,4,bim,2AFC - 4 pictures,3528246,48,bim,control_low,1220.92500000144,3,1,match,pilot2
bim11,4,bim,2AFC - 4 pictures,3528252,54,bim,control_low,2423.5800000024,2,1,match,pilot2
bim11,4,bim,2AFC - 4 pictures,3517626,23,bim,control_high,1241.99999999837,1,1,match,pilot2
bim11,4,bim,2AFC - 4 pictures,3517616,34,bim,control_low,2118.10500000138,2,1,match,pilot2
bim11,4,bim,2AFC - 4 pictures,3502650,32,bim,control_high,878.670000000042,1,1,match,pilot2
bim11,4,bim,2AFC - 4 pictures,3528273,2,bim,control_high,1153.58500019647,1,1,match,pilot2
bim11,4,bim,2AFC - 4 pictures,3518198,13,bim,control_low,1184.99999999767,2,1,match,pilot2
bim12,4,bim,2AFC - 4 pictures,3528252,32,bim,control_high,1128.67000000551,2,1,match,pilot2
bim12,4,bim,2AFC - 4 pictures,3502650,31,bim,control_low,1269.0500000001,1,1,match,pilot2
bim12,4,bim,2AFC - 4 pictures,3517616,37,bim,control_high,1998.23500000639,2,1,match,pilot2
bim12,4,bim,2AFC - 4 pictures,3518198,29,bim,control_high,1017.99999998184,2,1,match,pilot2
bim12,4,bim,2AFC - 4 pictures,3528273,12,bim,control_low,2315.35500008613,1,1,match,pilot2
bim12,4,bim,2AFC - 4 pictures,3528247,7,bim,control_low,1102.23499999847,3,1,match,pilot2
bim12,4,bim,2AFC - 4 pictures,3517626,4,bim,control_low,2116.00000000908,1,1,match,pilot2
bim12,4,bim,2AFC - 4 pictures,3528246,54,bim,control_low,1039.37500000757,3,1,match,pilot2
bim12,4,bim,2AFC - 4 pictures,3502663,26,bim,control_low,947.925000000396,3,1,match,pilot2
bim13,4,bim,2AFC - 4 pictures,3528247,48,bim,control_high,1219.96499999659,3,1,match,pilot2
bim13,4,bim,2AFC - 4 pictures,3528246,40,bim,control_high,1382.04499999119,3,1,match,pilot2
bim13,4,bim,2AFC - 4 pictures,3528273,19,bim,control_low,3417.99500002526,1,1,match,pilot2
bim13,4,bim,2AFC - 4 pictures,3502650,4,bim,control_low,1071.70500000006,1,1,match,pilot2
bim13,4,bim,2AFC - 4 pictures,3517626,53,bim,control_low,1320.00000000698,1,1,match,pilot2
bim13,4,bim,2AFC - 4 pictures,3502650,1,dep,low,3430.90000000007,1,0,errorControl-low,pilot2
bim13,4,bim,2AFC - 4 pictures,3502663,37,bim,control_high,1224.11499999999,3,1,match,pilot2
bim15,4,bim,2AFC - 4 pictures,3517616,38,bim,control_low,1338.30999999191,2,1,match,pilot2
bim15,4,bim,2AFC - 4 pictures,3528246,33,bim,control_high,1128.46999999601,3,1,match,pilot2
bim15,4,bim,2AFC - 4 pictures,3502663,33,bim,control_high,1252.53999999995,3,1,match,pilot2
bim15,4,bim,2AFC - 4 pictures,3528247,26,bim,control_high,886.264999979176,3,1,match,pilot2
bim15,4,bim,2AFC - 4 pictures,3518198,52,bim,control_low,1195.00000000698,2,1,match,pilot2
bim15,4,bim,2AFC - 4 pictures,3528252,46,bim,control_low,2098.99999998743,2,1,match,pilot2
bim16,4,bim,2AFC - 4 pictures,3528273,8,bim,control_high,886.920000193641,1,1,match,pilot2
bim16,4,bim,2AFC - 4 pictures,3517626,8,bim,control_high,1320.99999999627,1,1,match,pilot2
bim16,4,bim,2AFC - 4 pictures,3502650,28,bim,control_high,1092.75500000012,1,1,match,pilot2
bim17,4,bim,2AFC - 4 pictures,3528252,36,bim,control_high,2230.66499998095,2,1,match,pilot2
bim17,4,bim,2AFC - 4 pictures,3518198,8,bim,control_high,1104.00000005029,2,1,match,pilot2
bim17,4,bim,2AFC - 4 pictures,3517616,11,bim,control_high,1036.20999999112,2,1,match,pilot2
bim18,4,bim,2AFC - 4 pictures,3528273,23,bim,control_low,1559.43999998271,1,1,match,pilot2
bim18,4,bim,2AFC - 4 pictures,3528246,23,bim,control_low,2515.37999999709,3,1,match,pilot2
bim18,4,bim,2AFC - 4 pictures,3502650,40,bim,control_low,1041.95999999999,1,1,match,pilot2
bim18,4,bim,2AFC - 4 pictures,3517626,29,bim,control_low,1545.99999997299,1,1,match,pilot2
bim18,4,bim,2AFC - 4 pictures,3528247,1,bim,control_low,1161.25500001363,3,1,match,pilot2
bim20,4,bim,2AFC - 4 pictures,3502663,34,wug,high,2490.35500000036,3,0,errorControl-high,pilot2
bim21,4,bim,2AFC - 4 pictures,3517616,4,bim,control_low,1392.81000001938,2,1,match,pilot2
bim21,4,bim,2AFC - 4 pictures,3517616,20,bim,control_low,949.104999977862,2,1,match,pilot2
bim21,4,bim,2AFC - 4 pictures,3518198,53,bim,control_low,954.000000027008,2,1,match,pilot2
bim21,4,bim,2AFC - 4 pictures,3528252,12,bim,control_low,1601.07999999309,2,1,match,pilot2
bim21,4,bim,2AFC - 4 pictures,3518198,47,bim,control_low,1266.00000000326,2,1,match,pilot2
bim21,4,bim,2AFC - 4 pictures,3528252,48,bim,control_low,2202.04000000376,2,1,match,pilot2
bim23,4,bim,2AFC - 4 pictures,3528252,50,bim,control_high,1294.66999997385,2,1,match,pilot2
bim23,4,bim,2AFC - 4 pictures,3528273,40,bim,control_low,3080.61000006273,1,1,match,pilot2
bim23,4,bim,2AFC - 4 pictures,3502650,26,bim,control_low,833.785000000033,1,1,match,pilot2
bim23,4,bim,2AFC - 4 pictures,3517616,1,bim,control_high,1560.1800000004,2,1,match,pilot2
bim23,4,bim,2AFC - 4 pictures,3518198,45,bim,control_high,851.000000024214,2,1,match,pilot2
bim23,4,bim,2AFC - 4 pictures,3517626,7,bim,control_low,1326.00000000093,1,1,match,pilot2
bim24,4,bim,2AFC - 4 pictures,3502650,20,tob,high,3454.27500000005,1,0,errorControl-high,pilot2
bim24,4,bim,2AFC - 4 pictures,3528273,51,tob,low,2858.06999984197,1,0,errorControl-low,pilot2
bim25,4,bim,2AFC - 4 pictures,3517626,22,bim,control_high,1253.99999998626,1,1,match,pilot2
bim25,4,bim,2AFC - 4 pictures,3502650,34,bim,control_high,1089.99500000002,1,1,match,pilot2
bim25,4,bim,2AFC - 4 pictures,3528273,9,bim,control_high,2015.75500005856,1,1,match,pilot2
bim25,4,bim,2AFC - 4 pictures,3502650,23,dep,low,1545.65999999999,1,0,errorControl-low,pilot2
bim5,4,bim,2AFC - 4 pictures,3528252,43,bim,control_high,1368.16499999259,2,1,match,pilot2
bim5,4,bim,2AFC - 4 pictures,3518198,14,bim,control_high,1005.99999999395,2,1,match,pilot2
bim6,4,bim,2AFC - 4 pictures,3502650,47,bim,control_high,1017.76499999981,1,1,match,pilot2
bim7,4,bim,2AFC - 4 pictures,3502663,16,bim,control_low,910.990000000311,3,1,match,pilot2
bim7,4,bim,2AFC - 4 pictures,3528246,5,bim,control_low,1220.9700000094,3,1,match,pilot2
bim7,4,bim,2AFC - 4 pictures,3528247,51,bim,control_low,852.859999984503,3,1,match,pilot2
bim8,4,bim,2AFC - 4 pictures,3528246,18,bim,control_high,1283.43999999925,3,1,match,pilot2
bim8,4,bim,2AFC - 4 pictures,3502663,46,bim,control_high,1085.27500000037,3,1,match,pilot2
bim8,4,bim,2AFC - 4 pictures,3528247,2,bim,control_high,919.265000004089,3,1,match,pilot2
missing,NA,NA,2AFC - 4 pictures,3502047,21,bim,control_low,1254.10500005819,1,NA,timedOut,pilot2
missing,NA,NA,2AFC - 4 pictures,3502047,22,dep,high,491.600000066683,1,NA,timedOut,pilot2
missing,NA,NA,2AFC - 4 pictures,3502047,23,tob,high,596.119999885559,1,NA,timedOut,pilot2
missing,NA,NA,2AFC - 4 pictures,3502047,24,dep,low,646.550000179559,1,NA,timedOut,pilot2
missing,NA,NA,2AFC - 4 pictures,3502047,25,tob,high,875.075000105426,1,NA,timedOut,pilot2
missing,NA,NA,2AFC - 4 pictures,3528273,42,wug,high,3497.36900000001,1,NA,timedOut,pilot2
missing,NA,NA,2AFC - 4 pictures,3502663,7,tob,low,3499.86,3,NA,timedOut,pilot2
missing,NA,NA,2AFC - 4 pictures,3502047,28,dep,low,757.375000044703,1,NA,timedOut,pilot2
missing,NA,NA,2AFC - 4 pictures,3502047,29,wug,high,682.869999902323,1,NA,timedOut,pilot2
missing,NA,NA,2AFC - 4 pictures,3502047,30,tob,high,551.740000024438,1,NA,timedOut,pilot2
missing,NA,NA,2AFC - 4 pictures,3502663,51,bim,control_low,3499.86000000002,3,NA,timedOut,pilot2
missing,NA,NA,2AFC - 4 pictures,3502047,32,wug,high,445.109999971464,1,NA,timedOut,pilot2
missing,NA,NA,2AFC - 4 pictures,3502047,33,dep,high,397.615000139922,1,NA,timedOut,pilot2
missing,NA,NA,2AFC - 4 pictures,3502663,14,wug,high,3497.402,3,NA,timedOut,pilot2
missing,NA,NA,2AFC - 4 pictures,3502663,55,dep,low,3499.85999999999,3,NA,timedOut,pilot2
missing,NA,NA,2AFC - 4 pictures,3502047,36,wug,low,698.754999786615,1,NA,timedOut,pilot2
missing,NA,NA,2AFC - 4 pictures,3502047,37,wug,high,706.875000149012,1,NA,timedOut,pilot2
missing,NA,NA,2AFC - 4 pictures,3502047,38,dep,high,613.665000069886,1,NA,timedOut,pilot2
missing,NA,NA,2AFC - 4 pictures,3528246,3,dep,low,3492.599,3,NA,timedOut,pilot2
missing,NA,NA,2AFC - 4 pictures,3528273,56,tob,low,3497.43599999999,1,NA,timedOut,pilot2
missing,NA,NA,2AFC - 4 pictures,3502047,1,dep,low,2905.5249998346,1,NA,timedOut,pilot2
missing,NA,NA,2AFC - 4 pictures,3502047,2,tob,low,2905.90999997221,1,NA,timedOut,pilot2
missing,NA,NA,2AFC - 4 pictures,3502047,3,wug,low,1485.59000017121,1,NA,timedOut,pilot2
missing,NA,NA,2AFC - 4 pictures,3502047,4,dep,low,3501.54,1,NA,timedOut,pilot2
missing,NA,NA,2AFC - 4 pictures,3502047,5,wug,high,2580.63499978743,1,NA,timedOut,pilot2
missing,NA,NA,2AFC - 4 pictures,3502047,6,dep,low,1616.36999994516,1,NA,timedOut,pilot2
missing,NA,NA,2AFC - 4 pictures,3502047,7,tob,low,2208.24999990873,1,NA,timedOut,pilot2
missing,NA,NA,2AFC - 4 pictures,3502047,8,tob,low,774.375000037253,1,NA,timedOut,pilot2
missing,NA,NA,2AFC - 4 pictures,3502047,9,tob,high,1155.55999986827,1,NA,timedOut,pilot2
missing,NA,NA,2AFC - 4 pictures,3518198,48,dep,high,3500,2,NA,timedOut,pilot2
missing,NA,NA,2AFC - 4 pictures,3502047,11,dep,low,3501.54,1,NA,timedOut,pilot2
missing,NA,NA,2AFC - 4 pictures,3517626,3,dep,low,3501.54,1,NA,timedOut,pilot2
missing,NA,NA,2AFC - 4 pictures,3502047,13,wug,low,1064.49000001885,1,NA,timedOut,pilot2
missing,NA,NA,2AFC - 4 pictures,3502047,14,bim,control_high,765.79499989748,1,NA,timedOut,pilot2
missing,NA,NA,2AFC - 4 pictures,3517626,6,dep,low,3501.54,1,NA,timedOut,pilot2
missing,NA,NA,2AFC - 4 pictures,3502047,16,dep,high,773.985000094399,1,NA,timedOut,pilot2
missing,NA,NA,2AFC - 4 pictures,3502047,17,bim,control_low,727.34500002116,1,NA,timedOut,pilot2
missing,NA,NA,2AFC - 4 pictures,3502047,18,wug,high,648.559999885038,1,NA,timedOut,pilot2
missing,NA,NA,2AFC - 4 pictures,3502047,19,bim,control_high,1282.64500014484,1,NA,timedOut,pilot2
missing,NA,NA,2AFC - 4 pictures,3502047,20,wug,low,574.550000019372,1,NA,timedOut,pilot2
missing,NA,NA,2AFC - 4 pictures,3502047,34,dep,high,1302.57500009611,1,NA,timedOut,pilot2
missing,NA,NA,2AFC - 4 pictures,3518198,32,tob,high,3501,2,NA,timedOut,pilot2
missing,NA,NA,2AFC - 4 pictures,3517626,26,dep,low,3501.53999999999,1,NA,timedOut,pilot2
missing,NA,NA,2AFC - 4 pictures,3502047,35,wug,high,682.180000003427,1,NA,timedOut,pilot2
missing,NA,NA,2AFC - 4 pictures,3502047,51,dep,high,475.964999990538,1,NA,timedOut,pilot2
missing,NA,NA,2AFC - 4 pictures,3502047,26,wug,low,627.250000135973,1,NA,timedOut,pilot2
missing,NA,NA,2AFC - 4 pictures,3502047,27,bim,control_low,709.425000008196,1,NA,timedOut,pilot2
missing,NA,NA,2AFC - 4 pictures,3502047,41,tob,low,338.120000204071,1,NA,timedOut,pilot2
missing,NA,NA,2AFC - 4 pictures,3528246,6,tob,low,3492.59899999999,3,NA,timedOut,pilot2
missing,NA,NA,2AFC - 4 pictures,3502047,43,tob,high,1559.35500003397,1,NA,timedOut,pilot2
missing,NA,NA,2AFC - 4 pictures,3502047,44,tob,high,867.595000192523,1,NA,timedOut,pilot2
missing,NA,NA,2AFC - 4 pictures,3502047,31,wug,low,448.284999933094,1,NA,timedOut,pilot2
missing,NA,NA,2AFC - 4 pictures,3502047,46,bim,control_low,1216.87999996357,1,NA,timedOut,pilot2
missing,NA,NA,2AFC - 4 pictures,3502047,47,bim,control_high,769.220000132918,1,NA,timedOut,pilot2
missing,NA,NA,2AFC - 4 pictures,3502047,48,wug,low,518.735000165179,1,NA,match,pilot2
missing,NA,NA,2AFC - 4 pictures,3502047,49,tob,low,620.239999843761,1,NA,timedOut,pilot2
missing,NA,NA,2AFC - 4 pictures,3502047,50,bim,control_high,493.179999990389,1,NA,match,pilot2
missing,NA,NA,2AFC - 4 pictures,3502047,55,wug,high,444.665000075474,1,NA,match,pilot2
missing,NA,NA,2AFC - 4 pictures,3528246,43,dep,low,3492.77799999999,3,NA,match,pilot2
missing,NA,NA,2AFC - 4 pictures,3502047,40,tob,low,466.074999887496,1,NA,timedOut,pilot2
missing,NA,NA,2AFC - 4 pictures,3502047,54,dep,low,631.969999987632,1,NA,match,pilot2
missing,NA,NA,2AFC - 4 pictures,3528246,31,wug,high,3492.77799999999,3,NA,timedOut,pilot2
missing,NA,NA,2AFC - 4 pictures,3502047,56,wug,high,494.674999965355,1,NA,match,pilot2
missing,NA,NA,2AFC - 4 pictures,3528273,32,tob,high,3497.59499999997,1,NA,match,pilot2
missing,NA,NA,2AFC - 4 pictures,3502047,45,dep,high,981.129999971017,1,NA,match,pilot2
missing,NA,NA,2AFC - 4 pictures,3528273,33,wug,high,3497.49799999999,1,NA,match,pilot2
missing,NA,NA,2AFC - 4 pictures,3528273,21,dep,low,3497.614,1,NA,match,pilot2
missing,NA,NA,2AFC - 4 pictures,3502047,52,tob,low,491.494999965653,1,NA,match,pilot2
missing,NA,NA,2AFC - 4 pictures,3502047,53,tob,low,487.669999944046,1,NA,timedOut,pilot2
missing,NA,NA,2AFC - 4 pictures,3528273,27,wug,high,3497.52800000001,1,NA,timedOut,pilot2
missing,NA,NA,2AFC - 4 pictures,3502047,39,dep,high,541.075000073761,1,NA,timedOut,pilot2
missing,NA,NA,2AFC - 4 pictures,3528273,30,wug,high,3497.815,1,NA,timedOut,pilot2
missing,NA,NA,2AFC - 4 pictures,3502650,9,wug,low,3500.07,1,NA,mismatch-type2,pilot2
missing,NA,NA,2AFC - 4 pictures,3502047,15,tob,high,1133.50000022911,1,NA,timedOut,pilot2
missing,NA,NA,2AFC - 4 pictures,3502650,6,dep,low,3500.623,1,NA,mismatch-type1,pilot2
missing,NA,NA,2AFC - 4 pictures,3502047,12,dep,low,3495.909,1,NA,timedOut,pilot2
missing,NA,NA,2AFC - 4 pictures,3502047,10,tob,high,1009.13000013679,1,NA,mismatch-type1,pilot2
missing,NA,NA,2AFC - 4 pictures,3518198,1,dep,low,3500,2,NA,match,pilot2
missing,NA,NA,2AFC - 4 pictures,3502047,42,wug,low,903.429999947548,1,NA,match,pilot2
missing,NA,NA,2AFC - 4 pictures,3528273,14,wug,high,3497.586,1,NA,match,pilot2
