resp,category,fribbleSelected,task,subjID,trial,labelPresented,frequency,rt,acc,type_of_resp,expeType
10225,1,dep,2AFC - 4 pictures,3467073,43,tob,low,1792.55999999988,0,mismatch-type1,pilot1
10225,1,dep,2AFC - 4 pictures,3473048,43,tob,low,1653.20499999871,0,mismatch-type1,pilot1
10225,1,dep,2AFC - 4 pictures,3475213,43,tob,low,2342.82499994151,0,mismatch-type1,pilot1
10225,1,dep,2AFC - 4 pictures,3481518,43,tob,low,1989.88500001724,0,mismatch-type1,pilot1
10625,1,dep,2AFC - 4 pictures,3394859,53,tob,low,1924.44999999134,0,mismatch-type1,pilot1
10625,1,dep,2AFC - 4 pictures,3467073,53,tob,low,1365.71499999991,0,mismatch-type1,pilot1
10625,1,dep,2AFC - 4 pictures,3473048,53,tob,low,1306.6999999992,0,mismatch-type1,pilot1
10625,1,dep,2AFC - 4 pictures,3430836,53,tob,low,1842.08999999988,0,mismatch-type1,pilot1
10675,1,dep,2AFC - 4 pictures,3491839,32,wug,high,1547.53999999957,0,mismatch-type1,pilot1
10725,1,dep,2AFC - 4 pictures,3491839,7,dep,low,1578.41499999995,1,match,pilot1
10725,1,dep,2AFC - 4 pictures,3473048,19,tob,low,2779.14500000043,0,mismatch-type1,pilot1
10725,1,dep,2AFC - 4 pictures,3481518,7,dep,low,2375.79499999993,1,match,pilot1
10725,1,dep,2AFC - 4 pictures,3424063,7,dep,low,2631,1,match,pilot1
10725,1,dep,2AFC - 4 pictures,3421453,7,dep,low,2282.82000000036,1,match,pilot1
10725,1,dep,2AFC - 4 pictures,3475213,19,tob,low,2821.77500007674,0,mismatch-type1,pilot1
10825,1,dep,2AFC - 4 pictures,3394859,54,dep,low,2401.86000001268,1,match,pilot1
10825,1,dep,2AFC - 4 pictures,3421453,54,dep,low,1267.52499999566,1,match,pilot1
10825,1,dep,2AFC - 4 pictures,3475213,54,dep,low,2467.24000014365,1,match,pilot1
10825,1,dep,2AFC - 4 pictures,3424063,54,dep,low,1821,1,match,pilot1
10825,1,dep,2AFC - 4 pictures,3481518,54,dep,low,2341.13499999512,1,match,pilot1
10825,1,dep,2AFC - 4 pictures,3481518,22,wug,low,1842.54500002135,0,mismatch-type2,pilot1
10875,1,dep,2AFC - 4 pictures,3430836,6,dep,high,2733.50499999992,1,match,pilot1
10875,1,dep,2AFC - 4 pictures,3424063,6,dep,high,1182,1,match,pilot1
10875,1,dep,2AFC - 4 pictures,3421453,6,dep,high,2881.32500000211,1,match,pilot1
10875,1,dep,2AFC - 4 pictures,3467073,6,dep,high,2491.03000000013,1,match,pilot1
10875,1,dep,2AFC - 4 pictures,3394859,6,dep,high,2620.62999999034,1,match,pilot1
10875,1,dep,2AFC - 4 pictures,3475213,6,dep,high,1669.51999999583,1,match,pilot1
10875,1,dep,2AFC - 4 pictures,3473048,6,dep,high,2207.75000000049,1,match,pilot1
10925,1,dep,2AFC - 4 pictures,3430836,38,dep,low,2851.03000000003,1,match,pilot1
10925,1,dep,2AFC - 4 pictures,3421453,38,dep,low,2234.70000000088,1,match,pilot1
10925,1,dep,2AFC - 4 pictures,3467073,38,dep,low,2533.38499999972,1,match,pilot1
10925,1,dep,2AFC - 4 pictures,3481518,38,dep,low,2614.15499998839,1,match,pilot1
10925,1,dep,2AFC - 4 pictures,3424063,38,dep,low,2656,1,match,pilot1
10975,1,dep,2AFC - 4 pictures,3467073,14,bim,control_high,2965.65999999984,0,errorControl,pilot1
11075,1,dep,2AFC - 4 pictures,3491839,13,wug,high,1642.93999999973,0,mismatch-type1,pilot1
11125,1,dep,2AFC - 4 pictures,3475213,11,dep,low,2513.73000000603,1,match,pilot1
11125,1,dep,2AFC - 4 pictures,3481518,24,wug,low,2532.17500000028,0,mismatch-type2,pilot1
11125,1,dep,2AFC - 4 pictures,3394859,11,dep,low,3341.8300000194,1,match,pilot1
11125,1,dep,2AFC - 4 pictures,3421453,11,dep,low,1925.66499999521,1,match,pilot1
11125,1,dep,2AFC - 4 pictures,3421453,34,dep,low,1446.93499999994,1,match,pilot1
11125,1,dep,2AFC - 4 pictures,3481518,34,dep,low,2097.59499999927,1,match,pilot1
11125,1,dep,2AFC - 4 pictures,3491839,34,dep,low,1554.90499999997,1,match,pilot1
11125,1,dep,2AFC - 4 pictures,3424063,11,dep,low,2918,1,match,pilot1
11125,1,dep,2AFC - 4 pictures,3424063,34,dep,low,2976,1,match,pilot1
11125,1,dep,2AFC - 4 pictures,3491839,52,tob,low,1050.15499999991,0,mismatch-type1,pilot1
11125,1,dep,2AFC - 4 pictures,3473048,52,tob,low,1393.37499999965,0,mismatch-type1,pilot1
11125,1,dep,2AFC - 4 pictures,3467073,52,tob,low,1225.03500000038,0,mismatch-type1,pilot1
11275,1,dep,2AFC - 4 pictures,3491839,8,wug,high,2203.35499999965,0,mismatch-type1,pilot1
11375,1,dep,2AFC - 4 pictures,3473048,15,dep,high,3012.19500000024,1,match,pilot1
11375,1,dep,2AFC - 4 pictures,3394859,15,dep,high,3099.78000001865,1,match,pilot1
11375,1,dep,2AFC - 4 pictures,3491839,15,dep,high,2897.11499999976,1,match,pilot1
11375,1,dep,2AFC - 4 pictures,3481518,15,dep,high,1550.11000001105,1,match,pilot1
11375,1,dep,2AFC - 4 pictures,3424063,15,dep,high,2121,1,match,pilot1
11375,1,dep,2AFC - 4 pictures,3475213,15,dep,high,2678.10499994084,1,match,pilot1
11425,1,dep,2AFC - 4 pictures,3430836,56,dep,low,3178.61500000005,1,match,pilot1
11425,1,dep,2AFC - 4 pictures,3424063,56,dep,low,2958,1,match,pilot1
11425,1,dep,2AFC - 4 pictures,3421453,56,dep,low,1245.99999999919,1,match,pilot1
11425,1,dep,2AFC - 4 pictures,3394859,56,dep,low,3188.48499999149,1,match,pilot1
11425,1,dep,2AFC - 4 pictures,3424063,48,dep,low,2762,1,match,pilot1
11425,1,dep,2AFC - 4 pictures,3481518,48,dep,low,2244.0400000196,1,match,pilot1
11425,1,dep,2AFC - 4 pictures,3421453,48,dep,low,1623.50500000321,1,match,pilot1
11425,1,dep,2AFC - 4 pictures,3481518,56,dep,low,2414.20999998809,1,match,pilot1
11475,1,dep,2AFC - 4 pictures,3424063,45,dep,high,2589,1,match,pilot1
11475,1,dep,2AFC - 4 pictures,3475213,45,dep,high,2721.89499996603,1,match,pilot1
11475,1,dep,2AFC - 4 pictures,3430836,45,dep,high,2012.27499999982,1,match,pilot1
11475,1,dep,2AFC - 4 pictures,3421453,45,dep,high,1985.78000000271,1,match,pilot1
11475,1,dep,2AFC - 4 pictures,3394859,45,dep,high,2627.08000000566,1,match,pilot1
11475,1,dep,2AFC - 4 pictures,3467073,45,dep,high,1998.88999999987,1,match,pilot1
11475,1,dep,2AFC - 4 pictures,3473048,45,dep,high,2467.48000000115,1,match,pilot1
11475,1,dep,2AFC - 4 pictures,3481518,45,dep,high,2079.2299999739,1,match,pilot1
11775,1,dep,2AFC - 4 pictures,3481518,3,dep,high,1624.22500000685,1,match,pilot1
11775,1,dep,2AFC - 4 pictures,3424063,3,dep,high,2372.99999999999,1,match,pilot1
11775,1,dep,2AFC - 4 pictures,3473048,3,dep,high,1959.13000000019,1,match,pilot1
11775,1,dep,2AFC - 4 pictures,3475213,3,dep,high,1919.72000012174,1,match,pilot1
11775,1,dep,2AFC - 4 pictures,3467073,3,dep,high,1965.55999999964,1,match,pilot1
11775,1,dep,2AFC - 4 pictures,3394859,3,dep,high,2275.02000000095,1,match,pilot1
11925,1,dep,2AFC - 4 pictures,3475213,20,tob,low,1791.33999999613,0,mismatch-type1,pilot1
11925,1,dep,2AFC - 4 pictures,3467073,20,tob,low,1336.22999999988,0,mismatch-type1,pilot1
11925,1,dep,2AFC - 4 pictures,3473048,20,tob,low,2326.85499999934,0,mismatch-type1,pilot1
12075,1,dep,2AFC - 4 pictures,3475213,28,tob,high,2489.62999996729,0,mismatch-type2,pilot1
12225,1,dep,2AFC - 4 pictures,3473048,10,tob,low,2345.97500000018,0,mismatch-type1,pilot1
12225,1,dep,2AFC - 4 pictures,3467073,10,tob,low,1610.09999999987,0,mismatch-type1,pilot1
12225,1,dep,2AFC - 4 pictures,3481518,10,tob,low,1177.48999997275,0,mismatch-type1,pilot1
12225,1,dep,2AFC - 4 pictures,3491839,10,tob,low,1845.81499999967,0,mismatch-type1,pilot1
12275,1,dep,2AFC - 4 pictures,3491839,49,wug,high,1778.21500000026,0,mismatch-type1,pilot1
12375,1,dep,2AFC - 4 pictures,3473048,9,dep,high,2254.51499999963,1,match,pilot1
12375,1,dep,2AFC - 4 pictures,3475213,9,dep,high,1954.90500004962,1,match,pilot1
12375,1,dep,2AFC - 4 pictures,3481518,9,dep,high,1824.17500001611,1,match,pilot1
12375,1,dep,2AFC - 4 pictures,3424063,9,dep,high,1929,1,match,pilot1
12375,1,dep,2AFC - 4 pictures,3430836,9,dep,high,2875.42499999994,1,match,pilot1
12375,1,dep,2AFC - 4 pictures,3394859,9,dep,high,2230.50000000512,1,match,pilot1
12375,1,dep,2AFC - 4 pictures,3467073,9,dep,high,2967.79500000002,1,match,pilot1
12425,1,dep,2AFC - 4 pictures,3475213,39,dep,low,1651.94000001065,1,match,pilot1
12425,1,dep,2AFC - 4 pictures,3467073,39,dep,low,2283.18500000023,1,match,pilot1
12425,1,dep,2AFC - 4 pictures,3424063,39,dep,low,1808,1,match,pilot1
12425,1,dep,2AFC - 4 pictures,3421453,39,dep,low,1269.65999999811,1,match,pilot1
12425,1,dep,2AFC - 4 pictures,3481518,39,dep,low,2213.42999997432,1,match,pilot1
12425,1,dep,2AFC - 4 pictures,3430836,39,dep,low,2903.73999999999,1,match,pilot1
12425,1,dep,2AFC - 4 pictures,3491839,39,dep,low,1789.51500000042,1,match,pilot1
12425,1,dep,2AFC - 4 pictures,3491839,51,bim,control_low,942.060000000318,0,errorControl,pilot1
12475,1,dep,2AFC - 4 pictures,3430836,17,dep,high,2229.74999999997,1,match,pilot1
12475,1,dep,2AFC - 4 pictures,3473048,17,dep,high,1403.47999999995,1,match,pilot1
12475,1,dep,2AFC - 4 pictures,3424063,17,dep,high,1400,1,match,pilot1
12475,1,dep,2AFC - 4 pictures,3467073,17,dep,high,2267.75499999984,1,match,pilot1
12475,1,dep,2AFC - 4 pictures,3394859,17,dep,high,1805.03499999759,1,match,pilot1
12475,1,dep,2AFC - 4 pictures,3421453,17,dep,high,2599.2849999966,1,match,pilot1
12475,1,dep,2AFC - 4 pictures,3481518,17,dep,high,1450.47499999055,1,match,pilot1
12525,1,dep,2AFC - 4 pictures,3473048,44,tob,low,1272.44000000064,0,mismatch-type1,pilot1
12525,1,dep,2AFC - 4 pictures,3467073,35,tob,low,1236.32999999973,0,mismatch-type1,pilot1
12525,1,dep,2AFC - 4 pictures,3475213,44,tob,low,2104.30000000633,0,mismatch-type1,pilot1
12525,1,dep,2AFC - 4 pictures,3394859,44,tob,low,2286.7649999971,0,mismatch-type1,pilot1
12525,1,dep,2AFC - 4 pictures,3430836,35,tob,low,1874.60000000009,0,mismatch-type1,pilot1
12525,1,dep,2AFC - 4 pictures,3473048,35,tob,low,2061.38500000088,0,mismatch-type1,pilot1
12525,1,dep,2AFC - 4 pictures,3467073,44,tob,low,975.940000000264,0,mismatch-type1,pilot1
12575,1,dep,2AFC - 4 pictures,3491839,50,bim,control_high,1328.72499999939,0,errorControl,pilot1
12975,1,dep,2AFC - 4 pictures,3473048,31,dep,high,2118.12500000087,1,match,pilot1
12975,1,dep,2AFC - 4 pictures,3481518,31,dep,high,2477.97500001616,1,match,pilot1
12975,1,dep,2AFC - 4 pictures,3424063,31,dep,high,1885,1,match,pilot1
12975,1,dep,2AFC - 4 pictures,3430836,31,dep,high,2981.83000000016,1,match,pilot1
12975,1,dep,2AFC - 4 pictures,3394859,31,dep,high,1822.73499999428,1,match,pilot1
12975,1,dep,2AFC - 4 pictures,3421453,31,dep,high,1589.32500000083,1,match,pilot1
13075,1,dep,2AFC - 4 pictures,3473048,26,dep,high,1895.32499999952,1,match,pilot1
13075,1,dep,2AFC - 4 pictures,3467073,26,dep,high,2176.73500000002,1,match,pilot1
13075,1,dep,2AFC - 4 pictures,3475213,26,dep,high,2528.64500018768,1,match,pilot1
13075,1,dep,2AFC - 4 pictures,3421453,26,dep,high,1994.31500000355,1,match,pilot1
13075,1,dep,2AFC - 4 pictures,3481518,26,dep,high,2216.82499998133,1,match,pilot1
13075,1,dep,2AFC - 4 pictures,3424063,26,dep,high,1734,1,match,pilot1
13075,1,dep,2AFC - 4 pictures,3394859,26,dep,high,2102.16499998933,1,match,pilot1
13175,1,dep,2AFC - 4 pictures,3491839,42,wug,high,2264.47000000009,0,mismatch-type1,pilot1
13375,1,dep,2AFC - 4 pictures,3491839,25,tob,high,1445.38499999999,0,mismatch-type2,pilot1
13375,1,dep,2AFC - 4 pictures,3475213,25,tob,high,2223.05999998935,0,mismatch-type2,pilot1
13575,1,dep,2AFC - 4 pictures,3491839,36,wug,high,1510.1800000002,0,mismatch-type1,pilot1
20125,2,wug,2AFC - 4 pictures,3394859,40,wug,low,2565.80000001122,1,match,pilot1
20125,2,wug,2AFC - 4 pictures,3424063,40,wug,low,1335,1,match,pilot1
20125,2,wug,2AFC - 4 pictures,3475213,40,wug,low,1931.95999995805,1,match,pilot1
20125,2,wug,2AFC - 4 pictures,3481518,4,wug,low,2358.94999999437,1,match,pilot1
20125,2,wug,2AFC - 4 pictures,3424063,4,wug,low,1770,1,match,pilot1
20125,2,wug,2AFC - 4 pictures,3421453,40,wug,low,1693.3349999963,1,match,pilot1
20125,2,wug,2AFC - 4 pictures,3430836,4,wug,low,3426.99999999991,1,match,pilot1
20125,2,wug,2AFC - 4 pictures,3394859,4,wug,low,3355.36999997566,1,match,pilot1
20125,2,wug,2AFC - 4 pictures,3481518,40,wug,low,2037.29499998735,1,match,pilot1
20225,2,wug,2AFC - 4 pictures,3424063,27,wug,low,1945,1,match,pilot1
20225,2,wug,2AFC - 4 pictures,3481518,27,wug,low,1851.46000000532,1,match,pilot1
20225,2,wug,2AFC - 4 pictures,3475213,27,wug,low,1855.30000017025,1,match,pilot1
20275,2,wug,2AFC - 4 pictures,3475213,31,dep,high,2571.01500011049,0,mismatch-type2,pilot1
20425,2,wug,2AFC - 4 pictures,3421453,35,tob,low,1617.93000000034,0,mismatch-type2,pilot1
20475,2,wug,2AFC - 4 pictures,3430836,21,wug,high,2898.28499999999,1,match,pilot1
20475,2,wug,2AFC - 4 pictures,3467073,21,wug,high,2205.735,1,match,pilot1
20475,2,wug,2AFC - 4 pictures,3481518,21,wug,high,1193.14499999746,1,match,pilot1
20475,2,wug,2AFC - 4 pictures,3424063,21,wug,high,1178,1,match,pilot1
20475,2,wug,2AFC - 4 pictures,3475213,21,wug,high,1373.89499996789,1,match,pilot1
20475,2,wug,2AFC - 4 pictures,3394859,21,wug,high,2066.39999998151,1,match,pilot1
20675,2,wug,2AFC - 4 pictures,3421453,9,dep,high,1814.98000000283,0,mismatch-type2,pilot1
20975,2,wug,2AFC - 4 pictures,3491839,29,tob,high,1140.15999999992,0,mismatch-type1,pilot1
21025,2,wug,2AFC - 4 pictures,3475213,33,wug,low,1746.0499999579,1,match,pilot1
21025,2,wug,2AFC - 4 pictures,3421453,33,wug,low,2136.40999999916,1,match,pilot1
21025,2,wug,2AFC - 4 pictures,3481518,33,wug,low,2729.56000000704,1,match,pilot1
21025,2,wug,2AFC - 4 pictures,3473048,56,dep,low,1703.34999999977,0,mismatch-type1,pilot1
21025,2,wug,2AFC - 4 pictures,3475213,56,dep,low,2419.80000003241,0,mismatch-type1,pilot1
21025,2,wug,2AFC - 4 pictures,3394859,33,wug,low,2115.35499998718,1,match,pilot1
21025,2,wug,2AFC - 4 pictures,3424063,33,wug,low,2663.99999999997,1,match,pilot1
21125,2,wug,2AFC - 4 pictures,3481518,11,dep,low,1903.61000000848,0,mismatch-type1,pilot1
21125,2,wug,2AFC - 4 pictures,3473048,48,dep,low,1535.43499999976,0,mismatch-type1,pilot1
21125,2,wug,2AFC - 4 pictures,3467073,48,dep,low,1883.19499999989,0,mismatch-type1,pilot1
21125,2,wug,2AFC - 4 pictures,3430836,48,dep,low,2779.90499999988,0,mismatch-type1,pilot1
21125,2,wug,2AFC - 4 pictures,3424063,22,wug,low,2081.99999999999,1,match,pilot1
21125,2,wug,2AFC - 4 pictures,3473048,11,dep,low,2334.01000000049,0,mismatch-type1,pilot1
21125,2,wug,2AFC - 4 pictures,3394859,22,wug,low,1952.2799999977,1,match,pilot1
21125,2,wug,2AFC - 4 pictures,3430836,11,dep,low,2871.84999999999,0,mismatch-type1,pilot1
21125,2,wug,2AFC - 4 pictures,3473048,7,dep,low,2327.37999999972,0,mismatch-type1,pilot1
21125,2,wug,2AFC - 4 pictures,3467073,7,dep,low,1633.60499999999,0,mismatch-type1,pilot1
21125,2,wug,2AFC - 4 pictures,3475213,7,dep,low,2608.3599999547,0,mismatch-type1,pilot1
21125,2,wug,2AFC - 4 pictures,3430836,7,dep,low,3255.33999999994,0,mismatch-type1,pilot1
21125,2,wug,2AFC - 4 pictures,3475213,22,wug,low,2096.91500011832,1,match,pilot1
21125,2,wug,2AFC - 4 pictures,3491839,48,dep,low,878.804999999382,0,mismatch-type1,pilot1
21175,2,wug,2AFC - 4 pictures,3424063,42,wug,high,1120,1,match,pilot1
21175,2,wug,2AFC - 4 pictures,3473048,42,wug,high,1360.095,1,match,pilot1
21175,2,wug,2AFC - 4 pictures,3467073,42,wug,high,1201.39000000016,1,match,pilot1
21175,2,wug,2AFC - 4 pictures,3481518,42,wug,high,1131.07000000309,1,match,pilot1
21175,2,wug,2AFC - 4 pictures,3430836,42,wug,high,3032.2349999999,1,match,pilot1
21175,2,wug,2AFC - 4 pictures,3394859,42,wug,high,1519.87000001827,1,match,pilot1
21175,2,wug,2AFC - 4 pictures,3475213,42,wug,high,2412.08000015467,1,match,pilot1
21225,2,wug,2AFC - 4 pictures,3394859,12,wug,low,2498.61500001862,1,match,pilot1
21225,2,wug,2AFC - 4 pictures,3475213,12,wug,low,2653.69500010274,1,match,pilot1
21225,2,wug,2AFC - 4 pictures,3424063,12,wug,low,2372,1,match,pilot1
21225,2,wug,2AFC - 4 pictures,3481518,12,wug,low,2082.69499999005,1,match,pilot1
21325,2,wug,2AFC - 4 pictures,3473048,54,dep,low,1695.74999999895,0,mismatch-type1,pilot1
21325,2,wug,2AFC - 4 pictures,3467073,54,dep,low,1187.40500000012,0,mismatch-type1,pilot1
21325,2,wug,2AFC - 4 pictures,3430836,54,dep,low,2749.81000000003,0,mismatch-type1,pilot1
21425,2,wug,2AFC - 4 pictures,3491839,20,tob,low,1121.75999999999,0,mismatch-type2,pilot1
21525,2,wug,2AFC - 4 pictures,3475213,34,dep,low,2292.40000015125,0,mismatch-type1,pilot1
21525,2,wug,2AFC - 4 pictures,3473048,34,dep,low,2445.8649999997,0,mismatch-type1,pilot1
21675,2,wug,2AFC - 4 pictures,3475213,36,wug,high,2369.47499983944,1,match,pilot1
21675,2,wug,2AFC - 4 pictures,3473048,36,wug,high,2135.24500000131,1,match,pilot1
21675,2,wug,2AFC - 4 pictures,3394859,36,wug,high,1514.49499998125,1,match,pilot1
21675,2,wug,2AFC - 4 pictures,3481518,36,wug,high,1225.36000001128,1,match,pilot1
21675,2,wug,2AFC - 4 pictures,3424063,36,wug,high,1455,1,match,pilot1
21675,2,wug,2AFC - 4 pictures,3430836,36,wug,high,1567.21500000003,1,match,pilot1
21675,2,wug,2AFC - 4 pictures,3421453,36,wug,high,2833.76000000135,1,match,pilot1
21675,2,wug,2AFC - 4 pictures,3467073,36,wug,high,1468.10999999978,1,match,pilot1
21725,2,wug,2AFC - 4 pictures,3421453,44,tob,low,1478.81500000221,0,mismatch-type2,pilot1
21775,2,wug,2AFC - 4 pictures,3421453,15,dep,high,1647.35500000097,0,mismatch-type2,pilot1
21875,2,wug,2AFC - 4 pictures,3481518,13,wug,high,1159.76999999839,1,match,pilot1
21875,2,wug,2AFC - 4 pictures,3473048,13,wug,high,1974.99499999957,1,match,pilot1
21875,2,wug,2AFC - 4 pictures,3430836,13,wug,high,1981.495,1,match,pilot1
21875,2,wug,2AFC - 4 pictures,3475213,13,wug,high,1997.02499993145,1,match,pilot1
21875,2,wug,2AFC - 4 pictures,3424063,13,wug,high,2482,1,match,pilot1
21875,2,wug,2AFC - 4 pictures,3421453,13,wug,high,1285.06999999809,1,match,pilot1
21875,2,wug,2AFC - 4 pictures,3467073,13,wug,high,2031.73000000016,1,match,pilot1
21925,2,wug,2AFC - 4 pictures,3424063,30,wug,low,1236,1,match,pilot1
21925,2,wug,2AFC - 4 pictures,3394859,30,wug,low,2434.30000002263,1,match,pilot1
21925,2,wug,2AFC - 4 pictures,3421453,30,wug,low,2398.75000000029,1,match,pilot1
21925,2,wug,2AFC - 4 pictures,3481518,30,wug,low,2673.55500001577,1,match,pilot1
21925,2,wug,2AFC - 4 pictures,3475213,30,wug,low,2241.73999996856,1,match,pilot1
22075,2,wug,2AFC - 4 pictures,3424063,8,wug,high,1934.99999999999,1,match,pilot1
22075,2,wug,2AFC - 4 pictures,3394859,8,wug,high,1587.17000001343,1,match,pilot1
22075,2,wug,2AFC - 4 pictures,3473048,8,wug,high,2602.07999999966,1,match,pilot1
22075,2,wug,2AFC - 4 pictures,3475213,8,wug,high,1714.12000013515,1,match,pilot1
22075,2,wug,2AFC - 4 pictures,3430836,8,wug,high,3213.77500000017,1,match,pilot1
22075,2,wug,2AFC - 4 pictures,3481518,8,wug,high,1587.65500001027,1,match,pilot1
22075,2,wug,2AFC - 4 pictures,3421453,8,wug,high,1543.02499999903,1,match,pilot1
22175,2,wug,2AFC - 4 pictures,3473048,49,wug,high,1799.72500000076,1,match,pilot1
22175,2,wug,2AFC - 4 pictures,3481518,49,wug,high,1051.50499998126,1,match,pilot1
22175,2,wug,2AFC - 4 pictures,3424063,49,wug,high,2080.99999999997,1,match,pilot1
22175,2,wug,2AFC - 4 pictures,3421453,49,wug,high,2604.12999999971,1,match,pilot1
22175,2,wug,2AFC - 4 pictures,3394859,49,wug,high,1812.65499998699,1,match,pilot1
22175,2,wug,2AFC - 4 pictures,3430836,49,wug,high,1836.46499999985,1,match,pilot1
22175,2,wug,2AFC - 4 pictures,3467073,49,wug,high,1540.14000000007,1,match,pilot1
22175,2,wug,2AFC - 4 pictures,3475213,49,wug,high,1778.42999994755,1,match,pilot1
22225,2,wug,2AFC - 4 pictures,3394859,39,dep,low,2828.125,0,mismatch-type1,pilot1
22225,2,wug,2AFC - 4 pictures,3473048,39,dep,low,2382.97500000044,0,mismatch-type1,pilot1
22525,2,wug,2AFC - 4 pictures,3473048,38,dep,low,2735.74999999983,0,mismatch-type1,pilot1
22525,2,wug,2AFC - 4 pictures,3394859,24,wug,low,1231.98500002036,1,match,pilot1
22525,2,wug,2AFC - 4 pictures,3421453,43,tob,low,1558.04000000353,0,mismatch-type2,pilot1
22525,2,wug,2AFC - 4 pictures,3475213,38,dep,low,3097.29499998502,0,mismatch-type1,pilot1
22525,2,wug,2AFC - 4 pictures,3421453,24,wug,low,1359.12500000268,1,match,pilot1
22525,2,wug,2AFC - 4 pictures,3430836,43,tob,low,2596.04999999987,0,mismatch-type2,pilot1
22525,2,wug,2AFC - 4 pictures,3467073,24,wug,low,3291.37499999978,1,match,pilot1
22525,2,wug,2AFC - 4 pictures,3475213,24,wug,low,1635.39499999024,1,match,pilot1
22525,2,wug,2AFC - 4 pictures,3491839,38,dep,low,1991.72,0,mismatch-type1,pilot1
22575,2,wug,2AFC - 4 pictures,3491839,55,bim,control_high,1400.84500000012,0,errorControl,pilot1
22875,2,wug,2AFC - 4 pictures,3421453,41,tob,high,1213.43500000512,0,mismatch-type1,pilot1
23075,2,wug,2AFC - 4 pictures,3491839,3,dep,high,1661.87500000069,0,mismatch-type2,pilot1
23475,2,wug,2AFC - 4 pictures,3421453,16,tob,high,2970.94500000094,0,mismatch-type1,pilot1
23475,2,wug,2AFC - 4 pictures,3421453,18,tob,high,2146.89499999804,0,mismatch-type1,pilot1
23575,2,wug,2AFC - 4 pictures,3473048,46,wug,high,1620.58500000057,1,match,pilot1
23575,2,wug,2AFC - 4 pictures,3430836,32,wug,high,2525.49999999997,1,match,pilot1
23575,2,wug,2AFC - 4 pictures,3481518,46,wug,high,1131.59500001348,1,match,pilot1
23575,2,wug,2AFC - 4 pictures,3394859,46,wug,high,1488.37500001537,1,match,pilot1
23575,2,wug,2AFC - 4 pictures,3481518,32,wug,high,1465.57999998913,1,match,pilot1
23575,2,wug,2AFC - 4 pictures,3424063,32,wug,high,2606.00000000003,1,match,pilot1
23575,2,wug,2AFC - 4 pictures,3430836,46,wug,high,1375.41000000009,1,match,pilot1
23575,2,wug,2AFC - 4 pictures,3475213,32,wug,high,1418.7249999959,1,match,pilot1
23575,2,wug,2AFC - 4 pictures,3467073,46,wug,high,3269.75000000038,1,match,pilot1
23575,2,wug,2AFC - 4 pictures,3421453,32,wug,high,1739.43000000145,1,match,pilot1
23575,2,wug,2AFC - 4 pictures,3421453,46,wug,high,3294.19999999664,1,match,pilot1
23575,2,wug,2AFC - 4 pictures,3491839,46,wug,high,3401.32499999981,1,match,pilot1
23575,2,wug,2AFC - 4 pictures,3473048,32,wug,high,1893.06000000032,1,match,pilot1
23575,2,wug,2AFC - 4 pictures,3467073,32,wug,high,2573.7650000001,1,match,pilot1
23575,2,wug,2AFC - 4 pictures,3424063,46,wug,high,2329,1,match,pilot1
23575,2,wug,2AFC - 4 pictures,3394859,32,wug,high,2320.38499999908,1,match,pilot1
30125,3,tob,2AFC - 4 pictures,3421453,10,tob,low,2008.63499999832,1,match,pilot1
30125,3,tob,2AFC - 4 pictures,3394859,10,tob,low,2683.66499998956,1,match,pilot1
30125,3,tob,2AFC - 4 pictures,3475213,10,tob,low,2649.79499997571,1,match,pilot1
30125,3,tob,2AFC - 4 pictures,3424063,10,tob,low,2500,1,match,pilot1
30225,3,tob,2AFC - 4 pictures,3394859,7,dep,low,2274.70000000903,0,mismatch-type2,pilot1
30375,3,tob,2AFC - 4 pictures,3491839,21,wug,high,1185.16999999974,0,mismatch-type2,pilot1
30425,3,tob,2AFC - 4 pictures,3424063,52,tob,low,2713.00000000003,1,match,pilot1
30425,3,tob,2AFC - 4 pictures,3475213,52,tob,low,1821.68000005186,1,match,pilot1
30425,3,tob,2AFC - 4 pictures,3473048,22,wug,low,1535.03999999884,0,mismatch-type1,pilot1
30425,3,tob,2AFC - 4 pictures,3481518,52,tob,low,1891.73499998287,1,match,pilot1
30425,3,tob,2AFC - 4 pictures,3491839,22,wug,low,2819.00000000041,0,mismatch-type1,pilot1
30425,3,tob,2AFC - 4 pictures,3421453,52,tob,low,1288.32999999577,1,match,pilot1
30425,3,tob,2AFC - 4 pictures,3394859,52,tob,low,2434.3200000003,1,match,pilot1
30475,3,tob,2AFC - 4 pictures,3481518,16,tob,high,1106.50500000338,1,match,pilot1
30475,3,tob,2AFC - 4 pictures,3473048,16,tob,high,2088.79499999966,1,match,pilot1
30475,3,tob,2AFC - 4 pictures,3424063,16,tob,high,3191,1,match,pilot1
30475,3,tob,2AFC - 4 pictures,3467073,16,tob,high,2162.50999999966,1,match,pilot1
30475,3,tob,2AFC - 4 pictures,3394859,16,tob,high,2462.88999999524,1,match,pilot1
30475,3,tob,2AFC - 4 pictures,3430836,16,tob,high,1820.49500000017,1,match,pilot1
30475,3,tob,2AFC - 4 pictures,3475213,16,tob,high,3094.58999987692,1,match,pilot1
30675,3,tob,2AFC - 4 pictures,3467073,31,dep,high,2787.58000000016,0,mismatch-type1,pilot1
30675,3,tob,2AFC - 4 pictures,3491839,14,bim,control_high,1973.32000000007,0,errorControl,pilot1
30675,3,tob,2AFC - 4 pictures,3491839,31,dep,high,2224.46000000037,0,mismatch-type1,pilot1
30725,3,tob,2AFC - 4 pictures,3394859,43,tob,low,2239.44999999367,1,match,pilot1
30725,3,tob,2AFC - 4 pictures,3424063,43,tob,low,2608,1,match,pilot1
30825,3,tob,2AFC - 4 pictures,3430836,27,wug,low,1568.21999999988,0,mismatch-type1,pilot1
30825,3,tob,2AFC - 4 pictures,3473048,27,wug,low,2231.14499999973,0,mismatch-type1,pilot1
30825,3,tob,2AFC - 4 pictures,3467073,27,wug,low,1086.76500000001,0,mismatch-type1,pilot1
30825,3,tob,2AFC - 4 pictures,3491839,27,wug,low,1342.01500000019,0,mismatch-type1,pilot1
31025,3,tob,2AFC - 4 pictures,3473048,40,wug,low,1614.72999999931,0,mismatch-type1,pilot1
31025,3,tob,2AFC - 4 pictures,3430836,40,wug,low,2437.79500000004,0,mismatch-type1,pilot1
31025,3,tob,2AFC - 4 pictures,3467073,40,wug,low,1542.91500000001,0,mismatch-type1,pilot1
31025,3,tob,2AFC - 4 pictures,3424063,53,tob,low,1506,1,match,pilot1
31025,3,tob,2AFC - 4 pictures,3491839,53,tob,low,2140.31499999965,1,match,pilot1
31025,3,tob,2AFC - 4 pictures,3491839,40,wug,low,1528.89000000051,0,mismatch-type1,pilot1
31025,3,tob,2AFC - 4 pictures,3424063,44,tob,low,1217,1,match,pilot1
31025,3,tob,2AFC - 4 pictures,3475213,53,tob,low,1778.75999989919,1,match,pilot1
31025,3,tob,2AFC - 4 pictures,3421453,53,tob,low,1796.99499999697,1,match,pilot1
31025,3,tob,2AFC - 4 pictures,3481518,44,tob,low,2581.9049999991,1,match,pilot1
31025,3,tob,2AFC - 4 pictures,3481518,53,tob,low,1496.11999999615,1,match,pilot1
31375,3,tob,2AFC - 4 pictures,3491839,2,tob,high,1687.43499999982,1,match,pilot1
31375,3,tob,2AFC - 4 pictures,3467073,8,wug,high,1910.06000000016,0,mismatch-type2,pilot1
31375,3,tob,2AFC - 4 pictures,3467073,2,tob,high,1810.31500000017,1,match,pilot1
31375,3,tob,2AFC - 4 pictures,3421453,2,tob,high,3431.38999999792,1,match,pilot1
31375,3,tob,2AFC - 4 pictures,3424063,2,tob,high,1288,1,match,pilot1
31375,3,tob,2AFC - 4 pictures,3430836,2,tob,high,3427.92499999996,1,match,pilot1
31375,3,tob,2AFC - 4 pictures,3481518,2,tob,high,1261.23999999254,1,match,pilot1
31375,3,tob,2AFC - 4 pictures,3473048,2,tob,high,1713.05500000017,1,match,pilot1
31375,3,tob,2AFC - 4 pictures,3475213,2,tob,high,1456.35499991477,1,match,pilot1
31375,3,tob,2AFC - 4 pictures,3394859,2,tob,high,1959.24500000547,1,match,pilot1
31525,3,tob,2AFC - 4 pictures,3467073,4,wug,low,1817.16499999993,0,mismatch-type1,pilot1
31525,3,tob,2AFC - 4 pictures,3481518,35,tob,low,1732.17499998282,1,match,pilot1
31525,3,tob,2AFC - 4 pictures,3473048,4,wug,low,2029.32499999952,0,mismatch-type1,pilot1
31525,3,tob,2AFC - 4 pictures,3491839,4,wug,low,1662.60499999953,0,mismatch-type1,pilot1
31525,3,tob,2AFC - 4 pictures,3475213,4,wug,low,2488.3250000421,0,mismatch-type1,pilot1
31525,3,tob,2AFC - 4 pictures,3475213,35,tob,low,2315.55499997921,1,match,pilot1
31525,3,tob,2AFC - 4 pictures,3424063,35,tob,low,1516,1,match,pilot1
31525,3,tob,2AFC - 4 pictures,3394859,35,tob,low,2484.93999999482,1,match,pilot1
31625,3,tob,2AFC - 4 pictures,3394859,19,tob,low,2444.43499998306,1,match,pilot1
31625,3,tob,2AFC - 4 pictures,3491839,19,tob,low,2255.68500000008,1,match,pilot1
31625,3,tob,2AFC - 4 pictures,3430836,19,tob,low,2843.29499999991,1,match,pilot1
31625,3,tob,2AFC - 4 pictures,3481518,19,tob,low,1932.96499998542,1,match,pilot1
31825,3,tob,2AFC - 4 pictures,3491839,24,wug,low,1430.61499999931,0,mismatch-type1,pilot1
31825,3,tob,2AFC - 4 pictures,3473048,24,wug,low,2053.35500000001,0,mismatch-type1,pilot1
31925,3,tob,2AFC - 4 pictures,3430836,33,wug,low,3065.99000000008,0,mismatch-type1,pilot1
31925,3,tob,2AFC - 4 pictures,3491839,33,wug,low,1547.19500000012,0,mismatch-type1,pilot1
31925,3,tob,2AFC - 4 pictures,3473048,33,wug,low,1655.21000000081,0,mismatch-type1,pilot1
31925,3,tob,2AFC - 4 pictures,3467073,33,wug,low,1181.81499999989,0,mismatch-type1,pilot1
31975,3,tob,2AFC - 4 pictures,3491839,26,dep,high,2156.26499999961,0,mismatch-type1,pilot1
32025,3,tob,2AFC - 4 pictures,3491839,56,dep,low,925.764999999956,0,mismatch-type2,pilot1
32075,3,tob,2AFC - 4 pictures,3491839,6,dep,high,1486.31999999998,0,mismatch-type1,pilot1
32075,3,tob,2AFC - 4 pictures,3481518,6,dep,high,2099.06999999657,0,mismatch-type1,pilot1
32125,3,tob,2AFC - 4 pictures,3430836,20,tob,low,3472.04499999998,1,match,pilot1
32125,3,tob,2AFC - 4 pictures,3421453,20,tob,low,3132.66500000464,1,match,pilot1
32125,3,tob,2AFC - 4 pictures,3481518,20,tob,low,2029.34999999707,1,match,pilot1
32125,3,tob,2AFC - 4 pictures,3394859,20,tob,low,2019.4649999903,1,match,pilot1
32125,3,tob,2AFC - 4 pictures,3424063,20,tob,low,2485,1,match,pilot1
32275,3,tob,2AFC - 4 pictures,3475213,41,tob,high,3156.7549998872,1,match,pilot1
32275,3,tob,2AFC - 4 pictures,3394859,41,tob,high,2954.59500001743,1,match,pilot1
32275,3,tob,2AFC - 4 pictures,3430836,41,tob,high,1475.10000000012,1,match,pilot1
32275,3,tob,2AFC - 4 pictures,3424063,41,tob,high,1614,1,match,pilot1
32275,3,tob,2AFC - 4 pictures,3473048,41,tob,high,1353.5899999988,1,match,pilot1
32275,3,tob,2AFC - 4 pictures,3481518,41,tob,high,1235.77500000829,1,match,pilot1
32275,3,tob,2AFC - 4 pictures,3467073,41,tob,high,1258.38499999963,1,match,pilot1
32375,3,tob,2AFC - 4 pictures,3491839,45,dep,high,1964.35999999993,0,mismatch-type1,pilot1
32425,3,tob,2AFC - 4 pictures,3467073,30,wug,low,2029.64500000006,0,mismatch-type1,pilot1
32425,3,tob,2AFC - 4 pictures,3430836,30,wug,low,1954.3749999998,0,mismatch-type1,pilot1
32425,3,tob,2AFC - 4 pictures,3473048,30,wug,low,1568.69000000006,0,mismatch-type1,pilot1
32425,3,tob,2AFC - 4 pictures,3491839,30,wug,low,1699.83000000048,0,mismatch-type1,pilot1
32475,3,tob,2AFC - 4 pictures,3491839,17,dep,high,3305.96499999956,0,mismatch-type1,pilot1
32525,3,tob,2AFC - 4 pictures,3491839,12,wug,low,1169.40000000068,0,mismatch-type1,pilot1
32525,3,tob,2AFC - 4 pictures,3430836,12,wug,low,3171.81000000004,0,mismatch-type1,pilot1
32525,3,tob,2AFC - 4 pictures,3421453,12,wug,low,2792.19500000181,0,mismatch-type1,pilot1
32525,3,tob,2AFC - 4 pictures,3473048,12,wug,low,2613.57500000032,0,mismatch-type1,pilot1
32875,3,tob,2AFC - 4 pictures,3473048,18,tob,high,1551.46499999956,1,match,pilot1
32875,3,tob,2AFC - 4 pictures,3394859,29,tob,high,2808.38000000222,1,match,pilot1
32875,3,tob,2AFC - 4 pictures,3467073,29,tob,high,1461.11500000006,1,match,pilot1
32875,3,tob,2AFC - 4 pictures,3430836,18,tob,high,1547.38499999985,1,match,pilot1
32875,3,tob,2AFC - 4 pictures,3430836,29,tob,high,1987.04999999996,1,match,pilot1
32875,3,tob,2AFC - 4 pictures,3473048,29,tob,high,2603.06499999933,1,match,pilot1
32875,3,tob,2AFC - 4 pictures,3424063,18,tob,high,1644,1,match,pilot1
32875,3,tob,2AFC - 4 pictures,3467073,18,tob,high,2418.37999999963,1,match,pilot1
32875,3,tob,2AFC - 4 pictures,3481518,18,tob,high,1315.8800000092,1,match,pilot1
32875,3,tob,2AFC - 4 pictures,3424063,29,tob,high,1337,1,match,pilot1
32875,3,tob,2AFC - 4 pictures,3481518,29,tob,high,1757.64500000514,1,match,pilot1
32875,3,tob,2AFC - 4 pictures,3421453,29,tob,high,1722.80499999761,1,match,pilot1
32875,3,tob,2AFC - 4 pictures,3394859,18,tob,high,2383.31000000471,1,match,pilot1
32875,3,tob,2AFC - 4 pictures,3475213,29,tob,high,2330.59999998659,1,match,pilot1
33075,3,tob,2AFC - 4 pictures,3430836,1,tob,high,1825.73000000002,1,match,pilot1
33075,3,tob,2AFC - 4 pictures,3424063,1,tob,high,2201,1,match,pilot1
33075,3,tob,2AFC - 4 pictures,3491839,1,tob,high,1512.60499999989,1,match,pilot1
33075,3,tob,2AFC - 4 pictures,3475213,1,tob,high,1618.66499995813,1,match,pilot1
33075,3,tob,2AFC - 4 pictures,3473048,1,tob,high,1302.05999999998,1,match,pilot1
33075,3,tob,2AFC - 4 pictures,3421453,1,tob,high,3401.47000000434,1,match,pilot1
33075,3,tob,2AFC - 4 pictures,3481518,1,tob,high,1090.33999999519,1,match,pilot1
33075,3,tob,2AFC - 4 pictures,3467073,1,tob,high,1597.65500000003,1,match,pilot1
33475,3,tob,2AFC - 4 pictures,3491839,28,tob,high,2548.56500000005,1,match,pilot1
33475,3,tob,2AFC - 4 pictures,3481518,28,tob,high,1233.16500001238,1,match,pilot1
33475,3,tob,2AFC - 4 pictures,3473048,28,tob,high,1570.57499999972,1,match,pilot1
33475,3,tob,2AFC - 4 pictures,3394859,28,tob,high,1362.84999997588,1,match,pilot1
33475,3,tob,2AFC - 4 pictures,3430836,28,tob,high,1351.63499999998,1,match,pilot1
33475,3,tob,2AFC - 4 pictures,3467073,28,tob,high,1389.37499999975,1,match,pilot1
33575,3,tob,2AFC - 4 pictures,3430836,25,tob,high,1451.90000000002,1,match,pilot1
33575,3,tob,2AFC - 4 pictures,3481518,25,tob,high,1562.66500000493,1,match,pilot1
33575,3,tob,2AFC - 4 pictures,3467073,25,tob,high,1569.68999999981,1,match,pilot1
33575,3,tob,2AFC - 4 pictures,3473048,25,tob,high,2206.04000000094,1,match,pilot1
33575,3,tob,2AFC - 4 pictures,3394859,25,tob,high,1393.41999997851,1,match,pilot1
bim10,4,bim,2AFC - 4 pictures,3467073,15,dep,high,2181.46999999999,0,errorControl-high,pilot1
bim11,4,bim,2AFC - 4 pictures,3491839,16,tob,high,1152.58999999971,0,errorControl-high,pilot1
bim14,4,bim,2AFC - 4 pictures,3475213,14,bim,control_high,1141.2100000307,1,match,pilot1
bim14,4,bim,2AFC - 4 pictures,3481518,14,bim,control_high,1057.19500000123,1,match,pilot1
bim14,4,bim,2AFC - 4 pictures,3394859,14,bim,control_high,1528.12000000267,1,match,pilot1
bim14,4,bim,2AFC - 4 pictures,3421453,14,bim,control_high,1807.22499999683,1,match,pilot1
bim14,4,bim,2AFC - 4 pictures,3491839,43,tob,low,1755.3450000005,0,errorControl-low,pilot1
bim14,4,bim,2AFC - 4 pictures,3473048,14,bim,control_high,1667.71000000063,1,match,pilot1
bim15,4,bim,2AFC - 4 pictures,3491839,9,dep,high,2587.38499999981,0,errorControl-high,pilot1
bim16,4,bim,2AFC - 4 pictures,3467073,51,bim,control_low,3100.43499999982,1,match,pilot1
bim16,4,bim,2AFC - 4 pictures,3430836,51,bim,control_low,1923.19999999995,1,match,pilot1
bim16,4,bim,2AFC - 4 pictures,3424063,51,bim,control_low,1091.99999999997,1,match,pilot1
bim16,4,bim,2AFC - 4 pictures,3481518,51,bim,control_low,1039.55000001588,1,match,pilot1
bim16,4,bim,2AFC - 4 pictures,3394859,51,bim,control_low,1527.97999998438,1,match,pilot1
bim16,4,bim,2AFC - 4 pictures,3475213,51,bim,control_low,2598.29000011086,1,match,pilot1
bim16,4,bim,2AFC - 4 pictures,3473048,51,bim,control_low,2550.63000000155,1,match,pilot1
bim16,4,bim,2AFC - 4 pictures,3421453,51,bim,control_low,1999.57500000164,1,match,pilot1
bim17,4,bim,2AFC - 4 pictures,3491839,11,dep,low,3264.49000000048,0,errorControl-low,pilot1
bim17,4,bim,2AFC - 4 pictures,3467073,11,dep,low,2263.79499999985,0,errorControl-low,pilot1
bim17,4,bim,2AFC - 4 pictures,3491839,41,tob,high,1332.7099999997,0,errorControl-high,pilot1
bim17,4,bim,2AFC - 4 pictures,3467073,56,dep,low,2288.07500000039,0,errorControl-low,pilot1
bim18,4,bim,2AFC - 4 pictures,3467073,19,tob,low,2507.21999999997,0,errorControl-low,pilot1
bim2,4,bim,2AFC - 4 pictures,3467073,12,wug,low,1306.32500000002,0,errorControl-low,pilot1
bim2,4,bim,2AFC - 4 pictures,3491839,35,tob,low,1233.48499999975,0,errorControl-low,pilot1
bim20,4,bim,2AFC - 4 pictures,3475213,46,wug,high,1321.01500011049,0,errorControl-high,pilot1
bim22,4,bim,2AFC - 4 pictures,3491839,18,tob,high,2561.52500000007,0,errorControl-high,pilot1
bim23,4,bim,2AFC - 4 pictures,3421453,5,bim,control_low,1055.8400000009,1,match,pilot1
bim23,4,bim,2AFC - 4 pictures,3394859,5,bim,control_low,1403.7299999909,1,match,pilot1
bim23,4,bim,2AFC - 4 pictures,3424063,5,bim,control_low,1098,1,match,pilot1
bim23,4,bim,2AFC - 4 pictures,3473048,5,bim,control_low,1503.04500000038,1,match,pilot1
bim23,4,bim,2AFC - 4 pictures,3475213,5,bim,control_low,1123.79000009969,1,match,pilot1
bim23,4,bim,2AFC - 4 pictures,3467073,5,bim,control_low,1128.48499999973,1,match,pilot1
bim23,4,bim,2AFC - 4 pictures,3491839,5,bim,control_low,1362.61500000001,1,match,pilot1
bim23,4,bim,2AFC - 4 pictures,3481518,5,bim,control_low,1134.78500000201,1,match,pilot1
bim24,4,bim,2AFC - 4 pictures,3481518,23,bim,control_low,914.380000001984,1,match,pilot1
bim24,4,bim,2AFC - 4 pictures,3491839,23,bim,control_low,1376.83000000016,1,match,pilot1
bim24,4,bim,2AFC - 4 pictures,3424063,23,bim,control_low,1116,1,match,pilot1
bim24,4,bim,2AFC - 4 pictures,3475213,23,bim,control_low,1082.51499990001,1,match,pilot1
bim24,4,bim,2AFC - 4 pictures,3421453,23,bim,control_low,1384.64999999997,1,match,pilot1
bim24,4,bim,2AFC - 4 pictures,3491839,44,tob,low,2042.23999999976,0,errorControl-low,pilot1
bim24,4,bim,2AFC - 4 pictures,3394859,23,bim,control_low,1487.62500000885,1,match,pilot1
bim24,4,bim,2AFC - 4 pictures,3467073,23,bim,control_low,1467.81499999997,1,match,pilot1
bim24,4,bim,2AFC - 4 pictures,3473048,23,bim,control_low,1183.10000000018,1,match,pilot1
bim24,4,bim,2AFC - 4 pictures,3430836,23,bim,control_low,2722.08999999998,1,match,pilot1
bim4,4,bim,2AFC - 4 pictures,3421453,50,bim,control_high,1279.71000000252,1,match,pilot1
bim4,4,bim,2AFC - 4 pictures,3424063,37,bim,control_low,1171,1,match,pilot1
bim4,4,bim,2AFC - 4 pictures,3394859,37,bim,control_low,1273.89500002027,1,match,pilot1
bim4,4,bim,2AFC - 4 pictures,3394859,50,bim,control_high,1245.80000000424,1,match,pilot1
bim4,4,bim,2AFC - 4 pictures,3430836,37,bim,control_low,1705.4250000001,1,match,pilot1
bim4,4,bim,2AFC - 4 pictures,3430836,50,bim,control_high,2008.79999999984,1,match,pilot1
bim4,4,bim,2AFC - 4 pictures,3481518,37,bim,control_low,1056.05499999365,1,match,pilot1
bim4,4,bim,2AFC - 4 pictures,3467073,37,bim,control_low,1711.68000000034,1,match,pilot1
bim4,4,bim,2AFC - 4 pictures,3475213,50,bim,control_high,1504.42000012845,1,match,pilot1
bim4,4,bim,2AFC - 4 pictures,3481518,50,bim,control_high,1044.88500001025,1,match,pilot1
bim4,4,bim,2AFC - 4 pictures,3467073,50,bim,control_high,1258.47999999995,1,match,pilot1
bim4,4,bim,2AFC - 4 pictures,3475213,37,bim,control_low,1424.64500013739,1,match,pilot1
bim4,4,bim,2AFC - 4 pictures,3473048,50,bim,control_high,1190.76000000132,1,match,pilot1
bim4,4,bim,2AFC - 4 pictures,3424063,50,bim,control_high,1075.00000000003,1,match,pilot1
bim4,4,bim,2AFC - 4 pictures,3473048,37,bim,control_low,1604.21999999927,1,match,pilot1
bim4,4,bim,2AFC - 4 pictures,3491839,37,bim,control_low,2002.26999999993,1,match,pilot1
bim4,4,bim,2AFC - 4 pictures,3421453,37,bim,control_low,1153.47499999916,1,match,pilot1
bim5,4,bim,2AFC - 4 pictures,3430836,55,bim,control_high,1476.86500000008,1,match,pilot1
bim5,4,bim,2AFC - 4 pictures,3424063,55,bim,control_high,1621,1,match,pilot1
bim5,4,bim,2AFC - 4 pictures,3394859,55,bim,control_high,2353.08000000077,1,match,pilot1
bim5,4,bim,2AFC - 4 pictures,3473048,55,bim,control_high,1929.18500000087,1,match,pilot1
bim5,4,bim,2AFC - 4 pictures,3475213,55,bim,control_high,1496.58499984071,1,match,pilot1
bim5,4,bim,2AFC - 4 pictures,3481518,55,bim,control_high,1006.91499997629,1,match,pilot1
bim5,4,bim,2AFC - 4 pictures,3421453,55,bim,control_high,882.284999999683,1,match,pilot1
bim6,4,bim,2AFC - 4 pictures,3394859,47,bim,control_high,1266.05000000563,1,match,pilot1
bim6,4,bim,2AFC - 4 pictures,3467073,47,bim,control_high,1862.2949999999,1,match,pilot1
bim6,4,bim,2AFC - 4 pictures,3430836,47,bim,control_high,1964.87000000002,1,match,pilot1
bim6,4,bim,2AFC - 4 pictures,3475213,47,bim,control_high,1265.26500005275,1,match,pilot1
bim6,4,bim,2AFC - 4 pictures,3473048,47,bim,control_high,1794.21499999991,1,match,pilot1
bim6,4,bim,2AFC - 4 pictures,3424063,47,bim,control_high,3049.00000000003,1,match,pilot1
bim6,4,bim,2AFC - 4 pictures,3481518,47,bim,control_high,1030.39999998873,1,match,pilot1
bim6,4,bim,2AFC - 4 pictures,3421453,47,bim,control_high,1001.7899999948,1,match,pilot1
missing,NA,NA,2AFC - 4 pictures,3424063,28,tob,high,3493,NA,timedOut,pilot1
missing,NA,NA,2AFC - 4 pictures,3394859,38,dep,low,3498.67499999999,NA,timedOut,pilot1
missing,NA,NA,2AFC - 4 pictures,3430836,5,bim,control_low,3497.951,NA,timedOut,pilot1
missing,NA,NA,2AFC - 4 pictures,3467073,22,wug,low,3497.204,NA,timedOut,pilot1
missing,NA,NA,2AFC - 4 pictures,3394859,13,wug,high,3498.143,NA,timedOut,pilot1
missing,NA,NA,2AFC - 4 pictures,3394859,1,tob,high,3498.575,NA,timedOut,pilot1
missing,NA,NA,2AFC - 4 pictures,3491839,47,bim,control_high,3503.505,NA,timedOut,pilot1
missing,NA,NA,2AFC - 4 pictures,3475213,17,dep,high,3501.099,NA,timedOut,pilot1
missing,NA,NA,2AFC - 4 pictures,3475213,18,tob,high,3500.946,NA,timedOut,pilot1
missing,NA,NA,2AFC - 4 pictures,3421453,21,wug,high,3499.887,NA,timedOut,pilot1
missing,NA,NA,2AFC - 4 pictures,3421453,22,wug,low,3499.97,NA,timedOut,pilot1
missing,NA,NA,2AFC - 4 pictures,3394859,48,dep,low,3498.49500000002,NA,timedOut,pilot1
missing,NA,NA,2AFC - 4 pictures,3430836,15,dep,high,3496.841,NA,timedOut,pilot1
missing,NA,NA,2AFC - 4 pictures,3491839,54,dep,low,3503.53300000002,NA,timedOut,pilot1
missing,NA,NA,2AFC - 4 pictures,3421453,25,tob,high,3500.12299999999,NA,timedOut,pilot1
missing,NA,NA,2AFC - 4 pictures,3467073,34,dep,low,3497.21100000001,NA,timedOut,pilot1
missing,NA,NA,2AFC - 4 pictures,3421453,28,tob,high,3500.04700000001,NA,timedOut,pilot1
missing,NA,NA,2AFC - 4 pictures,3421453,42,wug,high,3500.019,NA,timedOut,pilot1
missing,NA,NA,2AFC - 4 pictures,3421453,3,dep,high,3499.997,NA,timedOut,pilot1
missing,NA,NA,2AFC - 4 pictures,3430836,22,wug,low,3497.035,NA,timedOut,pilot1
missing,NA,NA,2AFC - 4 pictures,3424063,19,tob,low,3498,NA,timedOut,pilot1
missing,NA,NA,2AFC - 4 pictures,3430836,24,wug,low,3497.481,NA,timedOut,pilot1
missing,NA,NA,2AFC - 4 pictures,3421453,19,tob,low,3499.901,NA,timedOut,pilot1
missing,NA,NA,2AFC - 4 pictures,3430836,26,dep,high,3497.19,NA,timedOut,pilot1
missing,NA,NA,2AFC - 4 pictures,3424063,24,wug,low,3520,NA,timedOut,pilot1
missing,NA,NA,2AFC - 4 pictures,3475213,48,dep,low,3500.97200000001,NA,timedOut,pilot1
missing,NA,NA,2AFC - 4 pictures,3394859,34,dep,low,3498.084,NA,timedOut,pilot1
missing,NA,NA,2AFC - 4 pictures,3473048,21,wug,high,3501.54000000001,NA,timedOut,pilot1
missing,NA,NA,2AFC - 4 pictures,3430836,44,tob,low,3497.23700000002,NA,timedOut,pilot1
missing,NA,NA,2AFC - 4 pictures,3421453,27,wug,low,3500.095,NA,timedOut,pilot1
missing,NA,NA,2AFC - 4 pictures,3430836,10,tob,low,3496.677,NA,timedOut,pilot1
missing,NA,NA,2AFC - 4 pictures,3424063,25,tob,high,3504,NA,timedOut,pilot1
missing,NA,NA,2AFC - 4 pictures,3421453,4,wug,low,3500.015,NA,timedOut,pilot1
missing,NA,NA,2AFC - 4 pictures,3394859,27,wug,low,3498.277,NA,timedOut,pilot1
missing,NA,NA,2AFC - 4 pictures,3430836,14,bim,control_high,3497.84800000001,NA,timedOut,pilot1
missing,NA,NA,2AFC - 4 pictures,3467073,55,bim,control_high,3497.201,NA,mismatch-type1,pilot1
missing,NA,NA,2AFC - 4 pictures,3424063,14,bim,control_high,3501,NA,mismatch-type1,pilot1
missing,NA,NA,2AFC - 4 pictures,3430836,3,dep,high,3502.191,NA,mismatch-type1,pilot1
missing,NA,NA,2AFC - 4 pictures,3430836,34,dep,low,3498.15300000002,NA,mismatch-type1,pilot1
missing,NA,NA,2AFC - 4 pictures,3430836,52,tob,low,3499.204,NA,mismatch-type1,pilot1
