fribbleID,subjID,language,plugin,codeword,rt,task,resp,learning,label,trialType,frequency,fribblePresented,trial,labelPresented,correctCategory,correctFrequency,correctLabel,body
1025,19l91w0hqd,en,image-slider-response,NE07SE16,2751,conJudg,24,FL,wug,match,l,2.2,5,wug,2,low,wug,blue
1025,0e2jb9zq47,en,image-slider-response,UAJIIN24,4496,conJudg,-45,FL,wug,match,l,2.2,5,wug,2,low,wug,blue
1025,td2t8o9pe4,de,image-slider-response,HL06IN19,2367,conJudg,-100,FL,wug,match,l,2.2,5,wug,2,low,wug,blue
1025,1x4fxyrk6x,en,image-slider-response,de05nk26,1112,conJudg,0,LF,wug,match,l,2.2,5,wug,2,low,wug,blue
1025,mn35br66m1,de,image-slider-response,IS05RY26,3596,conJudg,100,FL,wug,match,l,2.2,5,wug,2,low,wug,blue
1025,490hj15f5l,en,image-slider-response,el05rd15,2284,conJudg,-39,LF,wug,match,l,2.2,5,wug,2,low,wug,blue
1025,9hgljjcs6a,de,image-slider-response,ER06RD19,2465,conJudg,-100,FL,wug,match,l,2.2,5,wug,2,low,wug,blue
1025,eyn4ys1wrs,en,image-slider-response,va07il15,3519,conJudg,-79,FL,wug,match,l,2.2,5,wug,2,low,wug,blue
1025,ulvf1nlewe,de,image-slider-response,ia04an16,3932,conJudg,-53,LF,wug,match,l,2.2,5,wug,2,low,wug,blue
1025,forzsbtguz,en,image-slider-response,ng06an28,4672,conJudg,-100,LF,wug,match,l,2.2,5,wug,2,low,wug,blue
1025,9dovdyxkak,de,image-slider-response,er09us26,2409,conJudg,100,LF,wug,match,l,2.2,5,wug,2,low,wug,blue
1025,mj8qhhm23d,de,image-slider-response,va08im28,2514,conJudg,77,FL,wug,match,l,2.2,5,wug,2,low,wug,blue
1025,5jpxbwcfh4,de,image-slider-response,el06as26,2214,conJudg,58,FL,wug,match,l,2.2,5,wug,2,low,wug,blue
1025,f64ncrzxu3,en,image-slider-response,NS08US09,NA,conJudg,NA,LF,wug,match,l,2.2,5,wug,2,low,wug,blue
1025,nlsem5jp13,de,image-slider-response,pf06nd18,6276,conJudg,-93,LF,wug,match,l,2.2,5,wug,2,low,wug,blue
1025,75e8k8531m,en,image-slider-response,tz05yu04,NA,conJudg,NA,FL,wug,match,l,2.2,5,wug,2,low,wug,blue
1025,0ypu8hv44k,de,image-slider-response,en06oi05,2297,conJudg,-100,LF,wug,match,l,2.2,5,wug,2,low,wug,blue
1025,8vhxe9t9g0,en,image-slider-response,ke05us31,2765,conJudg,100,FL,wug,match,l,2.2,5,wug,2,low,wug,blue
1025,wg3u6jr0nh,en,image-slider-response,ic07ir25,3172,conJudg,-71,LF,wug,match,l,2.2,5,wug,2,low,wug,blue
1025,ptl3djnzo5,de,image-slider-response,el06nd29,4020,conJudg,28,FL,wug,match,l,2.2,5,wug,2,low,wug,blue
1025,wmv7c0r6c5,en,image-slider-response,va04ik29,3886,conJudg,-100,FL,wug,match,l,2.2,5,wug,2,low,wug,blue
1025,z15jvz5weu,en,image-slider-response,gh09er15,3395,conJudg,100,FL,wug,match,l,2.2,5,wug,2,low,wug,blue
1025,wrmngomh1f,de,image-slider-response,at08ed04,5089,conJudg,100,LF,wug,match,l,2.2,5,wug,2,low,wug,blue
1025,sob32efsmd,en,image-slider-response,qi02ng28,1854,conJudg,28,FL,wug,match,l,2.2,5,wug,2,low,wug,blue
1025,yjk8vlfumr,de,image-slider-response,dt06as01,2484,conJudg,-100,LF,wug,match,l,2.2,5,wug,2,low,wug,blue
1025,kk4adj1drx,de,image-slider-response,en05es25,4356,conJudg,-100,LF,wug,match,l,2.2,5,wug,2,low,wug,blue
1025,yzwvuo5jcw,en,image-slider-response,ya08ya01,3758,conJudg,-100,LF,wug,match,l,2.2,5,wug,2,low,wug,blue
1025,40757xtlgp,en,image-slider-response,va05er24,3429,conJudg,-100,FL,wug,match,l,2.2,5,wug,2,low,wug,blue
1025,3yxnw7xt1g,de,image-slider-response,cz06an18,4402,conJudg,-37,FL,wug,match,l,2.2,5,wug,2,low,wug,blue
1025,csfpvftfnx,de,image-slider-response,ko05or02,6005,conJudg,100,LF,wug,match,l,2.2,5,wug,2,low,wug,blue
1025,et4cc4zeqy,de,image-slider-response,er08an21,2581,conJudg,80,FL,wug,match,l,2.2,5,wug,2,low,wug,blue
1025,temg3es1km,de,image-slider-response,VA04RG03,2600,conJudg,-63,LF,wug,match,l,2.2,5,wug,2,low,wug,blue
1025,ty0rq2vzkd,en,image-slider-response,eh06in06,4155,conJudg,-74,LF,wug,match,l,2.2,5,wug,2,low,wug,blue
1025,408x5p8cy7,en,image-slider-response,va08ar03,2756,conJudg,-95,LF,wug,match,l,2.2,5,wug,2,low,wug,blue
1025,g0qt0dz9h6,en,image-slider-response,LD05ND12,3790,conJudg,-15,FL,wug,match,l,2.2,5,wug,2,low,wug,blue
1025,nbzeelogn1,en,image-slider-response,AL05AR15,2855,conJudg,65,FL,wug,match,l,2.2,5,wug,2,low,wug,blue
1025,kbwv2blq88,de,image-slider-response,el09rd31,1562,conJudg,0,LF,wug,match,l,2.2,5,wug,2,low,wug,blue
1025,pc9v71lhle,en,image-slider-response,nd05rt12,5612,conJudg,-43,LF,wug,match,l,2.2,5,wug,2,low,wug,blue
1025,kpfcu6m48v,en,image-slider-response,in07er09,4754,conJudg,100,FL,wug,match,l,2.2,5,wug,2,low,wug,blue
1025,uf6pxq0fzv,en,image-slider-response,RG06DY30,4823,conJudg,-100,FL,wug,match,l,2.2,5,wug,2,low,wug,blue
1025,u9vce3hluj,de,image-slider-response,ne05ar22,6863,conJudg,66,LF,wug,match,l,2.2,5,wug,2,low,wug,blue
1025,7jmcv9rt87,en,image-slider-response,nd05ff22,3447,conJudg,-100,FL,wug,match,l,2.2,5,wug,2,low,wug,blue
1025,cdnsgh8l6s,de,image-slider-response,RL05OR28,2720,conJudg,29,FL,wug,match,l,2.2,5,wug,2,low,wug,blue
1025,khlkyd4sl5,en,image-slider-response,en04az24,2981,conJudg,-70,FL,wug,match,l,2.2,5,wug,2,low,wug,blue
1025,4xjqd36lab,en,image-slider-response,un08ta23,2946,conJudg,0,LF,wug,match,l,2.2,5,wug,2,low,wug,blue
1025,dqehnfb6j7,en,image-slider-response,er08em17,1611,conJudg,0,FL,wug,match,l,2.2,5,wug,2,low,wug,blue
1025,7acm8wjh3r,en,image-slider-response,na09ay17,2708,conJudg,-56,LF,wug,match,l,2.2,5,wug,2,low,wug,blue
1025,et8whud6pz,en,image-slider-response,er07el13,2983,conJudg,-100,LF,wug,match,l,2.2,5,wug,2,low,wug,blue
1025,43qjs0ts63,en,image-slider-response,la07as21,2442,conJudg,-100,FL,wug,match,l,2.2,5,wug,2,low,wug,blue
1025,atap00wwqb,en,image-slider-response,ft08en25,3909,conJudg,-100,FL,wug,match,l,2.2,5,wug,2,low,wug,blue
1025,5baebfz1ea,en,image-slider-response,Ya05an03,6223,conJudg,100,FL,wug,match,l,2.2,5,wug,2,low,wug,blue
1025,gjq6le86au,en,image-slider-response,NG09US28,3552,conJudg,-100,LF,wug,match,l,2.2,5,wug,2,low,wug,blue
1025,s48cjlol2y,de,image-slider-response,er04rt18,4562,conJudg,-100,FL,wug,match,l,2.2,5,wug,2,low,wug,blue
1025,zm0cozjsh6,en,image-slider-response,al05rt16,3846,conJudg,-18,FL,wug,match,l,2.2,5,wug,2,low,wug,blue
1025,99v3ayruzp,de,image-slider-response,ki04as07,1948,conJudg,30,LF,wug,match,l,2.2,5,wug,2,low,wug,blue
1025,fnul5v7u0c,en,image-slider-response,ng06rd26,2442,conJudg,49,LF,wug,match,l,2.2,5,wug,2,low,wug,blue
1025,1nbemfkd3a,de,image-slider-response,KE05KO08,2522,conJudg,-100,FL,wug,match,l,2.2,5,wug,2,low,wug,blue
1025,asumwjv4nj,en,image-slider-response,ne06je04,4981,conJudg,100,LF,wug,match,l,2.2,5,wug,2,low,wug,blue
1025,7jnze5y1xt,de,image-slider-response,er07rg24,1547,conJudg,-57,FL,wug,match,l,2.2,5,wug,2,low,wug,blue
1025,p0ob2fsrsp,de,image-slider-response,lu04rk02,3852,conJudg,-100,LF,wug,match,l,2.2,5,wug,2,low,wug,blue
1025,dy38rvvnxc,de,image-slider-response,rf07er10,3874,conJudg,-100,LF,wug,match,l,2.2,5,wug,2,low,wug,blue
1025,owwgbas786,en,image-slider-response,ke09im08,2162,conJudg,100,FL,wug,match,l,2.2,5,wug,2,low,wug,blue
1025,22elk0nh1m,de,image-slider-response,er08rd25,3351,conJudg,-90,LF,wug,match,l,2.2,5,wug,2,low,wug,blue
1025,zt9mew4cym,de,image-slider-response,el06ng23,2865,conJudg,-100,LF,wug,match,l,2.2,5,wug,2,low,wug,blue
1025,nav0ha06h4,en,image-slider-response,TZ07ER11,3001,conJudg,-98,LF,wug,match,l,2.2,5,wug,2,low,wug,blue
1025,emk1tsfc0c,en,image-slider-response,dt05as10,3931,conJudg,-95,FL,wug,match,l,2.2,5,wug,2,low,wug,blue
1025,osnv2y9pl1,en,image-slider-response,af05ra11,3371,conJudg,-100,LF,wug,match,l,2.2,5,wug,2,low,wug,blue
1025,zq7k8hkxsq,de,image-slider-response,fa05ea13,4368,conJudg,-100,FL,wug,match,l,2.2,5,wug,2,low,wug,blue
1025,g8yr0b9yda,en,image-slider-response,er07im06,3357,conJudg,58,LF,wug,match,l,2.2,5,wug,2,low,wug,blue
1025,9kjfelsstb,en,image-slider-response,er09ch20,4196,conJudg,65,FL,wug,match,l,2.2,5,wug,2,low,wug,blue
1025,g4m3kbu4rq,en,image-slider-response,ER04LF09,5506,conJudg,-52,LF,wug,match,l,2.2,5,wug,2,low,wug,blue
1025,wuvcv75zvq,de,image-slider-response,VA04RD11,3989,conJudg,17,FL,wug,match,l,2.2,5,wug,2,low,wug,blue
1025,f0xfptzqrg,de,image-slider-response,ay05em02,2869,conJudg,79,LF,wug,match,l,2.2,5,wug,2,low,wug,blue
1025,po0zyzo9vq,de,image-slider-response,we06ed23,3126,conJudg,-33,FL,wug,match,l,2.2,5,wug,2,low,wug,blue
1025,tbo3kx7lyg,de,image-slider-response,ke06ng04,7155,conJudg,50,FL,wug,match,l,2.2,5,wug,2,low,wug,blue
1025,7908vbmsu0,en,image-slider-response,en19ao08,3545,conJudg,-99,LF,wug,match,l,2.2,5,wug,2,low,wug,blue
1025,xtld2mlddm,de,image-slider-response,ek05an20,2316,conJudg,-100,LF,wug,match,l,2.2,5,wug,2,low,wug,blue
1025,2z8ekchs9g,en,image-slider-response,rt08ed02,2013,conJudg,78,FL,wug,match,l,2.2,5,wug,2,low,wug,blue
1025,w1htsndwg2,en,image-slider-response,bo05ou27,2941,conJudg,100,LF,wug,match,l,2.2,5,wug,2,low,wug,blue
1025,plssjv82xb,de,image-slider-response,Fr.11:45,NA,conJudg,NA,LF,wug,match,l,2.2,5,wug,2,low,wug,blue
1025,bhjyudy7kq,de,image-slider-response,IC06IR09,3969,conJudg,-35,FL,wug,match,l,2.2,5,wug,2,low,wug,blue
1025,75db5dymcw,de,image-slider-response,er05en16,2507,conJudg,43,FL,wug,match,l,2.2,5,wug,2,low,wug,blue
1025,7ksbngduvy,en,image-slider-response,ng09ei12,2637,conJudg,100,FL,wug,match,l,2.2,5,wug,2,low,wug,blue
1025,dt4f26xnjv,en,image-slider-response,ER04LF09,2673,conJudg,-100,FL,wug,match,l,2.2,5,wug,2,low,wug,blue
1025,3zzac4tx1p,en,image-slider-response,on03as29,3712,conJudg,-11,LF,wug,match,l,2.2,5,wug,2,low,wug,blue
1025,ro2w51u9qx,de,image-slider-response,ER04AV16,3144,conJudg,100,LF,wug,match,l,2.2,5,wug,2,low,wug,blue
1025,7xgb6axxfk,de,image-slider-response,rf07as06,4414,conJudg,34,FL,wug,match,l,2.2,5,wug,2,low,wug,blue
1025,c7w24j9nfq,de,image-slider-response,ck05ng18,1917,conJudg,-100,LF,wug,match,l,2.2,5,wug,2,low,wug,blue
1025,zgrkqwru88,en,image-slider-response,as04co18,3494,conJudg,-100,LF,wug,match,l,2.2,5,wug,2,low,wug,blue
1025,9zuef86ced,de,image-slider-response,rz06as26,NA,conJudg,NA,FL,wug,match,l,2.2,5,wug,2,low,wug,blue
1025,l2tdyj71gq,de,image-slider-response,er04as06,2475,conJudg,100,LF,wug,match,l,2.2,5,wug,2,low,wug,blue
1025,a7hqcrbor2,de,image-slider-response,ll08ar27,2853,conJudg,46,FL,wug,match,l,2.2,5,wug,2,low,wug,blue
1025,acgok0jj2j,de,image-slider-response,VO06AS02,2914,conJudg,-100,LF,wug,match,l,2.2,5,wug,2,low,wug,blue
1025,g6wblx1ehg,en,image-slider-response,aj05er02,5188,conJudg,-47,FL,wug,match,l,2.2,5,wug,2,low,wug,blue
1025,hhm1sss4hy,en,image-slider-response,mi06ka18,2800,conJudg,100,FL,wug,match,l,2.2,5,wug,2,low,wug,blue
1025,f00qbt8xgh,en,image-slider-response,NE07SE16,4205,conJudg,-22,FL,wug,match,l,2.2,5,wug,2,low,wug,blue
1025,ltyqe11amm,de,image-slider-response,er05in25,3270,conJudg,78,FL,wug,match,l,2.2,5,wug,2,low,wug,blue
1025,re8dk0velw,en,image-slider-response,ic25an08,2888,conJudg,0,LF,wug,match,l,2.2,5,wug,2,low,wug,blue
1025,w6nynz57oc,en,image-slider-response,tz03as24,3405,conJudg,-100,LF,wug,match,l,2.2,5,wug,2,low,wug,blue
1075,wg3u6jr0nh,en,image-slider-response,ic07ir25,2713,conJudg,61,LF,wug,match,h,2.1,5,wug,2,high,wug,purple
1075,zq7k8hkxsq,de,image-slider-response,fa05ea13,2278,conJudg,100,FL,wug,match,h,2.1,5,wug,2,high,wug,purple
1075,g8yr0b9yda,en,image-slider-response,er07im06,3435,conJudg,38,LF,wug,match,h,2.1,5,wug,2,high,wug,purple
1075,td2t8o9pe4,de,image-slider-response,HL06IN19,2817,conJudg,100,FL,wug,match,h,2.1,5,wug,2,high,wug,purple
1075,9hgljjcs6a,de,image-slider-response,ER06RD19,2876,conJudg,77,FL,wug,match,h,2.1,5,wug,2,high,wug,purple
1075,uf6pxq0fzv,en,image-slider-response,RG06DY30,2165,conJudg,59,FL,wug,match,h,2.1,5,wug,2,high,wug,purple
1075,plssjv82xb,de,image-slider-response,Fr.11:45,NA,conJudg,NA,LF,wug,match,h,2.1,5,wug,2,high,wug,purple
1075,u9vce3hluj,de,image-slider-response,ne05ar22,1906,conJudg,100,LF,wug,match,h,2.1,5,wug,2,high,wug,purple
1075,g6wblx1ehg,en,image-slider-response,aj05er02,3037,conJudg,100,FL,wug,match,h,2.1,5,wug,2,high,wug,purple
1075,s48cjlol2y,de,image-slider-response,er04rt18,2314,conJudg,100,FL,wug,match,h,2.1,5,wug,2,high,wug,purple
1075,asumwjv4nj,en,image-slider-response,ne06je04,3084,conJudg,100,LF,wug,match,h,2.1,5,wug,2,high,wug,purple
1075,2z8ekchs9g,en,image-slider-response,rt08ed02,2914,conJudg,100,FL,wug,match,h,2.1,5,wug,2,high,wug,purple
1075,kpfcu6m48v,en,image-slider-response,in07er09,3218,conJudg,97,FL,wug,match,h,2.1,5,wug,2,high,wug,purple
1075,mn35br66m1,de,image-slider-response,IS05RY26,3603,conJudg,100,FL,wug,match,h,2.1,5,wug,2,high,wug,purple
1075,ro2w51u9qx,de,image-slider-response,ER04AV16,3700,conJudg,100,LF,wug,match,h,2.1,5,wug,2,high,wug,purple
1075,zgrkqwru88,en,image-slider-response,as04co18,3359,conJudg,54,LF,wug,match,h,2.1,5,wug,2,high,wug,purple
1075,g4m3kbu4rq,en,image-slider-response,ER04LF09,4760,conJudg,100,LF,wug,match,h,2.1,5,wug,2,high,wug,purple
1075,3yxnw7xt1g,de,image-slider-response,cz06an18,2116,conJudg,100,FL,wug,match,h,2.1,5,wug,2,high,wug,purple
1075,zm0cozjsh6,en,image-slider-response,al05rt16,1781,conJudg,100,FL,wug,match,h,2.1,5,wug,2,high,wug,purple
1075,po0zyzo9vq,de,image-slider-response,we06ed23,2745,conJudg,86,FL,wug,match,h,2.1,5,wug,2,high,wug,purple
1075,zt9mew4cym,de,image-slider-response,el06ng23,2931,conJudg,100,LF,wug,match,h,2.1,5,wug,2,high,wug,purple
1075,wrmngomh1f,de,image-slider-response,at08ed04,5569,conJudg,100,LF,wug,match,h,2.1,5,wug,2,high,wug,purple
1075,1nbemfkd3a,de,image-slider-response,KE05KO08,2058,conJudg,100,FL,wug,match,h,2.1,5,wug,2,high,wug,purple
1075,nav0ha06h4,en,image-slider-response,TZ07ER11,2483,conJudg,100,LF,wug,match,h,2.1,5,wug,2,high,wug,purple
1075,fnul5v7u0c,en,image-slider-response,ng06rd26,3041,conJudg,-30,LF,wug,match,h,2.1,5,wug,2,high,wug,purple
1075,75db5dymcw,de,image-slider-response,er05en16,2691,conJudg,66,FL,wug,match,h,2.1,5,wug,2,high,wug,purple
1075,z15jvz5weu,en,image-slider-response,gh09er15,4580,conJudg,100,FL,wug,match,h,2.1,5,wug,2,high,wug,purple
1075,ulvf1nlewe,de,image-slider-response,ia04an16,3706,conJudg,100,LF,wug,match,h,2.1,5,wug,2,high,wug,purple
1075,f64ncrzxu3,en,image-slider-response,NS08US09,2643,conJudg,100,LF,wug,match,h,2.1,5,wug,2,high,wug,purple
1075,c7w24j9nfq,de,image-slider-response,ck05ng18,1808,conJudg,100,LF,wug,match,h,2.1,5,wug,2,high,wug,purple
1075,3zzac4tx1p,en,image-slider-response,on03as29,3452,conJudg,100,LF,wug,match,h,2.1,5,wug,2,high,wug,purple
1075,7ksbngduvy,en,image-slider-response,ng09ei12,2709,conJudg,100,FL,wug,match,h,2.1,5,wug,2,high,wug,purple
1075,emk1tsfc0c,en,image-slider-response,dt05as10,6678,conJudg,98,FL,wug,match,h,2.1,5,wug,2,high,wug,purple
1075,75e8k8531m,en,image-slider-response,tz05yu04,2698,conJudg,63,FL,wug,match,h,2.1,5,wug,2,high,wug,purple
1075,yzwvuo5jcw,en,image-slider-response,ya08ya01,3948,conJudg,100,LF,wug,match,h,2.1,5,wug,2,high,wug,purple
1075,7acm8wjh3r,en,image-slider-response,na09ay17,1906,conJudg,100,LF,wug,match,h,2.1,5,wug,2,high,wug,purple
1075,19l91w0hqd,en,image-slider-response,NE07SE16,1934,conJudg,0,FL,wug,match,h,2.1,5,wug,2,high,wug,purple
1075,9kjfelsstb,en,image-slider-response,er09ch20,1893,conJudg,100,FL,wug,match,h,2.1,5,wug,2,high,wug,purple
1075,forzsbtguz,en,image-slider-response,ng06an28,2355,conJudg,100,LF,wug,match,h,2.1,5,wug,2,high,wug,purple
1075,ltyqe11amm,de,image-slider-response,er05in25,2551,conJudg,100,FL,wug,match,h,2.1,5,wug,2,high,wug,purple
1075,khlkyd4sl5,en,image-slider-response,en04az24,3750,conJudg,61,FL,wug,match,h,2.1,5,wug,2,high,wug,purple
1075,re8dk0velw,en,image-slider-response,ic25an08,5170,conJudg,0,LF,wug,match,h,2.1,5,wug,2,high,wug,purple
1075,7xgb6axxfk,de,image-slider-response,rf07as06,2247,conJudg,37,FL,wug,match,h,2.1,5,wug,2,high,wug,purple
1075,et4cc4zeqy,de,image-slider-response,er08an21,2547,conJudg,100,FL,wug,match,h,2.1,5,wug,2,high,wug,purple
1075,7jnze5y1xt,de,image-slider-response,er07rg24,2448,conJudg,100,FL,wug,match,h,2.1,5,wug,2,high,wug,purple
1075,408x5p8cy7,en,image-slider-response,va08ar03,2837,conJudg,100,LF,wug,match,h,2.1,5,wug,2,high,wug,purple
1075,7908vbmsu0,en,image-slider-response,en19ao08,2328,conJudg,100,LF,wug,match,h,2.1,5,wug,2,high,wug,purple
1075,atap00wwqb,en,image-slider-response,ft08en25,2899,conJudg,100,FL,wug,match,h,2.1,5,wug,2,high,wug,purple
1075,mj8qhhm23d,de,image-slider-response,va08im28,1962,conJudg,100,FL,wug,match,h,2.1,5,wug,2,high,wug,purple
1075,w6nynz57oc,en,image-slider-response,tz03as24,2977,conJudg,100,LF,wug,match,h,2.1,5,wug,2,high,wug,purple
1075,dqehnfb6j7,en,image-slider-response,er08em17,1980,conJudg,100,FL,wug,match,h,2.1,5,wug,2,high,wug,purple
1075,wmv7c0r6c5,en,image-slider-response,va04ik29,2560,conJudg,100,FL,wug,match,h,2.1,5,wug,2,high,wug,purple
1075,0e2jb9zq47,en,image-slider-response,UAJIIN24,4574,conJudg,86,FL,wug,match,h,2.1,5,wug,2,high,wug,purple
1075,et8whud6pz,en,image-slider-response,er07el13,2359,conJudg,100,LF,wug,match,h,2.1,5,wug,2,high,wug,purple
1075,ptl3djnzo5,de,image-slider-response,el06nd29,3957,conJudg,57,FL,wug,match,h,2.1,5,wug,2,high,wug,purple
1075,bhjyudy7kq,de,image-slider-response,IC06IR09,3522,conJudg,-42,FL,wug,match,h,2.1,5,wug,2,high,wug,purple
1075,hhm1sss4hy,en,image-slider-response,mi06ka18,2874,conJudg,100,FL,wug,match,h,2.1,5,wug,2,high,wug,purple
1075,40757xtlgp,en,image-slider-response,va05er24,2968,conJudg,100,FL,wug,match,h,2.1,5,wug,2,high,wug,purple
1075,p0ob2fsrsp,de,image-slider-response,lu04rk02,3105,conJudg,100,LF,wug,match,h,2.1,5,wug,2,high,wug,purple
1075,xtld2mlddm,de,image-slider-response,ek05an20,5081,conJudg,100,LF,wug,match,h,2.1,5,wug,2,high,wug,purple
1075,temg3es1km,de,image-slider-response,VA04RG03,2100,conJudg,100,LF,wug,match,h,2.1,5,wug,2,high,wug,purple
1075,5baebfz1ea,en,image-slider-response,Ya05an03,4589,conJudg,-1,FL,wug,match,h,2.1,5,wug,2,high,wug,purple
1075,99v3ayruzp,de,image-slider-response,ki04as07,2950,conJudg,20,LF,wug,match,h,2.1,5,wug,2,high,wug,purple
1075,cdnsgh8l6s,de,image-slider-response,RL05OR28,2415,conJudg,100,FL,wug,match,h,2.1,5,wug,2,high,wug,purple
1075,ty0rq2vzkd,en,image-slider-response,eh06in06,2660,conJudg,100,LF,wug,match,h,2.1,5,wug,2,high,wug,purple
1075,nlsem5jp13,de,image-slider-response,pf06nd18,2898,conJudg,100,LF,wug,match,h,2.1,5,wug,2,high,wug,purple
1075,0ypu8hv44k,de,image-slider-response,en06oi05,2456,conJudg,100,LF,wug,match,h,2.1,5,wug,2,high,wug,purple
1075,a7hqcrbor2,de,image-slider-response,ll08ar27,4331,conJudg,100,FL,wug,match,h,2.1,5,wug,2,high,wug,purple
1075,gjq6le86au,en,image-slider-response,NG09US28,2849,conJudg,95,LF,wug,match,h,2.1,5,wug,2,high,wug,purple
1075,sob32efsmd,en,image-slider-response,qi02ng28,2270,conJudg,31,FL,wug,match,h,2.1,5,wug,2,high,wug,purple
1075,nbzeelogn1,en,image-slider-response,AL05AR15,3596,conJudg,52,FL,wug,match,h,2.1,5,wug,2,high,wug,purple
1075,kk4adj1drx,de,image-slider-response,en05es25,3173,conJudg,100,LF,wug,match,h,2.1,5,wug,2,high,wug,purple
1075,7jmcv9rt87,en,image-slider-response,nd05ff22,2380,conJudg,100,FL,wug,match,h,2.1,5,wug,2,high,wug,purple
1075,8vhxe9t9g0,en,image-slider-response,ke05us31,3105,conJudg,100,FL,wug,match,h,2.1,5,wug,2,high,wug,purple
1075,22elk0nh1m,de,image-slider-response,er08rd25,3176,conJudg,100,LF,wug,match,h,2.1,5,wug,2,high,wug,purple
1075,w1htsndwg2,en,image-slider-response,bo05ou27,4061,conJudg,100,LF,wug,match,h,2.1,5,wug,2,high,wug,purple
1075,5jpxbwcfh4,de,image-slider-response,el06as26,4294,conJudg,10,FL,wug,match,h,2.1,5,wug,2,high,wug,purple
1075,csfpvftfnx,de,image-slider-response,ko05or02,3997,conJudg,100,LF,wug,match,h,2.1,5,wug,2,high,wug,purple
1075,osnv2y9pl1,en,image-slider-response,af05ra11,2332,conJudg,100,LF,wug,match,h,2.1,5,wug,2,high,wug,purple
1075,f00qbt8xgh,en,image-slider-response,NE07SE16,3253,conJudg,22,FL,wug,match,h,2.1,5,wug,2,high,wug,purple
1075,f0xfptzqrg,de,image-slider-response,ay05em02,3152,conJudg,90,LF,wug,match,h,2.1,5,wug,2,high,wug,purple
1075,kbwv2blq88,de,image-slider-response,el09rd31,2315,conJudg,100,LF,wug,match,h,2.1,5,wug,2,high,wug,purple
1075,9dovdyxkak,de,image-slider-response,er09us26,2518,conJudg,100,LF,wug,match,h,2.1,5,wug,2,high,wug,purple
1075,dt4f26xnjv,en,image-slider-response,ER04LF09,2789,conJudg,100,FL,wug,match,h,2.1,5,wug,2,high,wug,purple
1075,dy38rvvnxc,de,image-slider-response,rf07er10,3281,conJudg,100,LF,wug,match,h,2.1,5,wug,2,high,wug,purple
1075,eyn4ys1wrs,en,image-slider-response,va07il15,2164,conJudg,100,FL,wug,match,h,2.1,5,wug,2,high,wug,purple
1075,9zuef86ced,de,image-slider-response,rz06as26,3387,conJudg,100,FL,wug,match,h,2.1,5,wug,2,high,wug,purple
1075,wuvcv75zvq,de,image-slider-response,VA04RD11,3078,conJudg,100,FL,wug,match,h,2.1,5,wug,2,high,wug,purple
1075,tbo3kx7lyg,de,image-slider-response,ke06ng04,4634,conJudg,100,FL,wug,match,h,2.1,5,wug,2,high,wug,purple
1075,pc9v71lhle,en,image-slider-response,nd05rt12,2843,conJudg,100,LF,wug,match,h,2.1,5,wug,2,high,wug,purple
1075,l2tdyj71gq,de,image-slider-response,er04as06,4047,conJudg,100,LF,wug,match,h,2.1,5,wug,2,high,wug,purple
1075,490hj15f5l,en,image-slider-response,el05rd15,3003,conJudg,100,LF,wug,match,h,2.1,5,wug,2,high,wug,purple
1075,g0qt0dz9h6,en,image-slider-response,LD05ND12,2079,conJudg,100,FL,wug,match,h,2.1,5,wug,2,high,wug,purple
1075,yjk8vlfumr,de,image-slider-response,dt06as01,2438,conJudg,100,LF,wug,match,h,2.1,5,wug,2,high,wug,purple
1075,43qjs0ts63,en,image-slider-response,la07as21,4002,conJudg,100,FL,wug,match,h,2.1,5,wug,2,high,wug,purple
1075,4xjqd36lab,en,image-slider-response,un08ta23,3215,conJudg,50,LF,wug,match,h,2.1,5,wug,2,high,wug,purple
1075,owwgbas786,en,image-slider-response,ke09im08,2324,conJudg,100,FL,wug,match,h,2.1,5,wug,2,high,wug,purple
1075,acgok0jj2j,de,image-slider-response,VO06AS02,1551,conJudg,100,LF,wug,match,h,2.1,5,wug,2,high,wug,purple
1075,1x4fxyrk6x,en,image-slider-response,de05nk26,983,conJudg,0,LF,wug,match,h,2.1,5,wug,2,high,wug,purple
1125,pc9v71lhle,en,image-slider-response,nd05rt12,3577,conJudg,-100,LF,dep,match,l,3.2,1,dep,3,low,dep,red
1125,dy38rvvnxc,de,image-slider-response,rf07er10,5165,conJudg,-46,LF,dep,match,l,3.2,1,dep,3,low,dep,red
1125,g4m3kbu4rq,en,image-slider-response,ER04LF09,1222,conJudg,0,LF,dep,match,l,3.2,1,dep,3,low,dep,red
1125,3yxnw7xt1g,de,image-slider-response,cz06an18,2468,conJudg,-77,FL,dep,match,l,3.2,1,dep,3,low,dep,red
1125,sob32efsmd,en,image-slider-response,qi02ng28,2152,conJudg,36,FL,dep,match,l,3.2,1,dep,3,low,dep,red
1125,4xjqd36lab,en,image-slider-response,un08ta23,2663,conJudg,0,LF,dep,match,l,3.2,1,dep,3,low,dep,red
1125,w1htsndwg2,en,image-slider-response,bo05ou27,3572,conJudg,0,LF,dep,match,l,3.2,1,dep,3,low,dep,red
1125,43qjs0ts63,en,image-slider-response,la07as21,2495,conJudg,-100,FL,dep,match,l,3.2,1,dep,3,low,dep,red
1125,s48cjlol2y,de,image-slider-response,er04rt18,2614,conJudg,-95,FL,dep,match,l,3.2,1,dep,3,low,dep,red
1125,0e2jb9zq47,en,image-slider-response,UAJIIN24,5910,conJudg,31,FL,dep,match,l,3.2,1,dep,3,low,dep,red
1125,3zzac4tx1p,en,image-slider-response,on03as29,5623,conJudg,15,LF,dep,match,l,3.2,1,dep,3,low,dep,red
1125,owwgbas786,en,image-slider-response,ke09im08,3586,conJudg,0,FL,dep,match,l,3.2,1,dep,3,low,dep,red
1125,19l91w0hqd,en,image-slider-response,NE07SE16,3603,conJudg,-100,FL,dep,match,l,3.2,1,dep,3,low,dep,red
1125,po0zyzo9vq,de,image-slider-response,we06ed23,3063,conJudg,-29,FL,dep,match,l,3.2,1,dep,3,low,dep,red
1125,csfpvftfnx,de,image-slider-response,ko05or02,4253,conJudg,17,LF,dep,match,l,3.2,1,dep,3,low,dep,red
1125,g8yr0b9yda,en,image-slider-response,er07im06,3089,conJudg,0,LF,dep,match,l,3.2,1,dep,3,low,dep,red
1125,g0qt0dz9h6,en,image-slider-response,LD05ND12,4642,conJudg,-68,FL,dep,match,l,3.2,1,dep,3,low,dep,red
1125,mj8qhhm23d,de,image-slider-response,va08im28,2569,conJudg,-22,FL,dep,match,l,3.2,1,dep,3,low,dep,red
1125,0ypu8hv44k,de,image-slider-response,en06oi05,2499,conJudg,-100,LF,dep,match,l,3.2,1,dep,3,low,dep,red
1125,re8dk0velw,en,image-slider-response,ic25an08,4902,conJudg,73,LF,dep,match,l,3.2,1,dep,3,low,dep,red
1125,wg3u6jr0nh,en,image-slider-response,ic07ir25,4403,conJudg,-22,LF,dep,match,l,3.2,1,dep,3,low,dep,red
1125,9zuef86ced,de,image-slider-response,rz06as26,2473,conJudg,-100,FL,dep,match,l,3.2,1,dep,3,low,dep,red
1125,75db5dymcw,de,image-slider-response,er05en16,4364,conJudg,-39,FL,dep,match,l,3.2,1,dep,3,low,dep,red
1125,7908vbmsu0,en,image-slider-response,en19ao08,4334,conJudg,-100,LF,dep,match,l,3.2,1,dep,3,low,dep,red
1125,p0ob2fsrsp,de,image-slider-response,lu04rk02,3334,conJudg,28,LF,dep,match,l,3.2,1,dep,3,low,dep,red
1125,kbwv2blq88,de,image-slider-response,el09rd31,2437,conJudg,0,LF,dep,match,l,3.2,1,dep,3,low,dep,red
1125,zm0cozjsh6,en,image-slider-response,al05rt16,3203,conJudg,41,FL,dep,match,l,3.2,1,dep,3,low,dep,red
1125,fnul5v7u0c,en,image-slider-response,ng06rd26,3234,conJudg,61,LF,dep,match,l,3.2,1,dep,3,low,dep,red
1125,u9vce3hluj,de,image-slider-response,ne05ar22,5608,conJudg,32,LF,dep,match,l,3.2,1,dep,3,low,dep,red
1125,l2tdyj71gq,de,image-slider-response,er04as06,2686,conJudg,100,LF,dep,match,l,3.2,1,dep,3,low,dep,red
1125,c7w24j9nfq,de,image-slider-response,ck05ng18,1632,conJudg,-100,LF,dep,match,l,3.2,1,dep,3,low,dep,red
1125,75e8k8531m,en,image-slider-response,tz05yu04,3342,conJudg,-37,FL,dep,match,l,3.2,1,dep,3,low,dep,red
1125,hhm1sss4hy,en,image-slider-response,mi06ka18,4990,conJudg,-58,FL,dep,match,l,3.2,1,dep,3,low,dep,red
1125,ro2w51u9qx,de,image-slider-response,ER04AV16,3057,conJudg,-48,LF,dep,match,l,3.2,1,dep,3,low,dep,red
1125,7acm8wjh3r,en,image-slider-response,na09ay17,4493,conJudg,-55,LF,dep,match,l,3.2,1,dep,3,low,dep,red
1125,40757xtlgp,en,image-slider-response,va05er24,5345,conJudg,-71,FL,dep,match,l,3.2,1,dep,3,low,dep,red
1125,plssjv82xb,de,image-slider-response,Fr.11:45,NA,conJudg,NA,LF,dep,match,l,3.2,1,dep,3,low,dep,red
1125,7jnze5y1xt,de,image-slider-response,er07rg24,5200,conJudg,-39,FL,dep,match,l,3.2,1,dep,3,low,dep,red
1125,nlsem5jp13,de,image-slider-response,pf06nd18,4649,conJudg,0,LF,dep,match,l,3.2,1,dep,3,low,dep,red
1125,forzsbtguz,en,image-slider-response,ng06an28,2454,conJudg,-100,LF,dep,match,l,3.2,1,dep,3,low,dep,red
1125,tbo3kx7lyg,de,image-slider-response,ke06ng04,5574,conJudg,44,FL,dep,match,l,3.2,1,dep,3,low,dep,red
1125,kk4adj1drx,de,image-slider-response,en05es25,4411,conJudg,-100,LF,dep,match,l,3.2,1,dep,3,low,dep,red
1125,7jmcv9rt87,en,image-slider-response,nd05ff22,2684,conJudg,-47,FL,dep,match,l,3.2,1,dep,3,low,dep,red
1125,temg3es1km,de,image-slider-response,VA04RG03,1800,conJudg,31,LF,dep,match,l,3.2,1,dep,3,low,dep,red
1125,99v3ayruzp,de,image-slider-response,ki04as07,2489,conJudg,-100,LF,dep,match,l,3.2,1,dep,3,low,dep,red
1125,ulvf1nlewe,de,image-slider-response,ia04an16,3769,conJudg,77,LF,dep,match,l,3.2,1,dep,3,low,dep,red
1125,yjk8vlfumr,de,image-slider-response,dt06as01,2898,conJudg,48,LF,dep,match,l,3.2,1,dep,3,low,dep,red
1125,dqehnfb6j7,en,image-slider-response,er08em17,3702,conJudg,0,FL,dep,match,l,3.2,1,dep,3,low,dep,red
1125,f64ncrzxu3,en,image-slider-response,NS08US09,2280,conJudg,-100,LF,dep,match,l,3.2,1,dep,3,low,dep,red
1125,9hgljjcs6a,de,image-slider-response,ER06RD19,5547,conJudg,-65,FL,dep,match,l,3.2,1,dep,3,low,dep,red
1125,w6nynz57oc,en,image-slider-response,tz03as24,2673,conJudg,-100,LF,dep,match,l,3.2,1,dep,3,low,dep,red
1125,22elk0nh1m,de,image-slider-response,er08rd25,2872,conJudg,-100,LF,dep,match,l,3.2,1,dep,3,low,dep,red
1125,atap00wwqb,en,image-slider-response,ft08en25,NA,conJudg,NA,FL,dep,match,l,3.2,1,dep,3,low,dep,red
1125,ptl3djnzo5,de,image-slider-response,el06nd29,2699,conJudg,-70,FL,dep,match,l,3.2,1,dep,3,low,dep,red
1125,ty0rq2vzkd,en,image-slider-response,eh06in06,2292,conJudg,100,LF,dep,match,l,3.2,1,dep,3,low,dep,red
1125,eyn4ys1wrs,en,image-slider-response,va07il15,3536,conJudg,-59,FL,dep,match,l,3.2,1,dep,3,low,dep,red
1125,zt9mew4cym,de,image-slider-response,el06ng23,3003,conJudg,-66,LF,dep,match,l,3.2,1,dep,3,low,dep,red
1125,9kjfelsstb,en,image-slider-response,er09ch20,4632,conJudg,-84,FL,dep,match,l,3.2,1,dep,3,low,dep,red
1125,cdnsgh8l6s,de,image-slider-response,RL05OR28,3871,conJudg,16,FL,dep,match,l,3.2,1,dep,3,low,dep,red
1125,f0xfptzqrg,de,image-slider-response,ay05em02,5000,conJudg,49,LF,dep,match,l,3.2,1,dep,3,low,dep,red
1125,408x5p8cy7,en,image-slider-response,va08ar03,3562,conJudg,-79,LF,dep,match,l,3.2,1,dep,3,low,dep,red
1125,wmv7c0r6c5,en,image-slider-response,va04ik29,4510,conJudg,100,FL,dep,match,l,3.2,1,dep,3,low,dep,red
1125,dt4f26xnjv,en,image-slider-response,ER04LF09,3043,conJudg,0,FL,dep,match,l,3.2,1,dep,3,low,dep,red
1125,mn35br66m1,de,image-slider-response,IS05RY26,3179,conJudg,-100,FL,dep,match,l,3.2,1,dep,3,low,dep,red
1125,2z8ekchs9g,en,image-slider-response,rt08ed02,2678,conJudg,100,FL,dep,match,l,3.2,1,dep,3,low,dep,red
1125,9dovdyxkak,de,image-slider-response,er09us26,4073,conJudg,-100,LF,dep,match,l,3.2,1,dep,3,low,dep,red
1125,1nbemfkd3a,de,image-slider-response,KE05KO08,4884,conJudg,46,FL,dep,match,l,3.2,1,dep,3,low,dep,red
1125,8vhxe9t9g0,en,image-slider-response,ke05us31,5913,conJudg,54,FL,dep,match,l,3.2,1,dep,3,low,dep,red
1125,yzwvuo5jcw,en,image-slider-response,ya08ya01,4217,conJudg,51,LF,dep,match,l,3.2,1,dep,3,low,dep,red
1125,1x4fxyrk6x,en,image-slider-response,de05nk26,1719,conJudg,0,LF,dep,match,l,3.2,1,dep,3,low,dep,red
1125,et4cc4zeqy,de,image-slider-response,er08an21,3008,conJudg,-25,FL,dep,match,l,3.2,1,dep,3,low,dep,red
1125,gjq6le86au,en,image-slider-response,NG09US28,3130,conJudg,0,LF,dep,match,l,3.2,1,dep,3,low,dep,red
1125,asumwjv4nj,en,image-slider-response,ne06je04,2227,conJudg,-46,LF,dep,match,l,3.2,1,dep,3,low,dep,red
1125,emk1tsfc0c,en,image-slider-response,dt05as10,3576,conJudg,-100,FL,dep,match,l,3.2,1,dep,3,low,dep,red
1125,7ksbngduvy,en,image-slider-response,ng09ei12,2801,conJudg,100,FL,dep,match,l,3.2,1,dep,3,low,dep,red
1125,et8whud6pz,en,image-slider-response,er07el13,1685,conJudg,0,LF,dep,match,l,3.2,1,dep,3,low,dep,red
1125,bhjyudy7kq,de,image-slider-response,IC06IR09,2878,conJudg,100,FL,dep,match,l,3.2,1,dep,3,low,dep,red
1125,kpfcu6m48v,en,image-slider-response,in07er09,4026,conJudg,19,FL,dep,match,l,3.2,1,dep,3,low,dep,red
1125,7xgb6axxfk,de,image-slider-response,rf07as06,3997,conJudg,-62,FL,dep,match,l,3.2,1,dep,3,low,dep,red
1125,490hj15f5l,en,image-slider-response,el05rd15,4862,conJudg,-84,LF,dep,match,l,3.2,1,dep,3,low,dep,red
1125,nav0ha06h4,en,image-slider-response,TZ07ER11,4767,conJudg,74,LF,dep,match,l,3.2,1,dep,3,low,dep,red
1125,5baebfz1ea,en,image-slider-response,Ya05an03,3192,conJudg,100,FL,dep,match,l,3.2,1,dep,3,low,dep,red
1125,osnv2y9pl1,en,image-slider-response,af05ra11,2872,conJudg,100,LF,dep,match,l,3.2,1,dep,3,low,dep,red
1125,f00qbt8xgh,en,image-slider-response,NE07SE16,4533,conJudg,-28,FL,dep,match,l,3.2,1,dep,3,low,dep,red
1125,nbzeelogn1,en,image-slider-response,AL05AR15,2462,conJudg,54,FL,dep,match,l,3.2,1,dep,3,low,dep,red
1125,ltyqe11amm,de,image-slider-response,er05in25,2717,conJudg,46,FL,dep,match,l,3.2,1,dep,3,low,dep,red
1125,z15jvz5weu,en,image-slider-response,gh09er15,5441,conJudg,100,FL,dep,match,l,3.2,1,dep,3,low,dep,red
1125,uf6pxq0fzv,en,image-slider-response,RG06DY30,3138,conJudg,-92,FL,dep,match,l,3.2,1,dep,3,low,dep,red
1125,acgok0jj2j,de,image-slider-response,VO06AS02,1362,conJudg,-22,LF,dep,match,l,3.2,1,dep,3,low,dep,red
1125,5jpxbwcfh4,de,image-slider-response,el06as26,4697,conJudg,-100,FL,dep,match,l,3.2,1,dep,3,low,dep,red
1125,zq7k8hkxsq,de,image-slider-response,fa05ea13,7434,conJudg,-100,FL,dep,match,l,3.2,1,dep,3,low,dep,red
1125,td2t8o9pe4,de,image-slider-response,HL06IN19,2432,conJudg,-100,FL,dep,match,l,3.2,1,dep,3,low,dep,red
1125,a7hqcrbor2,de,image-slider-response,ll08ar27,4424,conJudg,-59,FL,dep,match,l,3.2,1,dep,3,low,dep,red
1125,wuvcv75zvq,de,image-slider-response,VA04RD11,5519,conJudg,-19,FL,dep,match,l,3.2,1,dep,3,low,dep,red
1125,zgrkqwru88,en,image-slider-response,as04co18,5371,conJudg,-100,LF,dep,match,l,3.2,1,dep,3,low,dep,red
1125,wrmngomh1f,de,image-slider-response,at08ed04,2891,conJudg,-100,LF,dep,match,l,3.2,1,dep,3,low,dep,red
1125,khlkyd4sl5,en,image-slider-response,en04az24,3361,conJudg,-67,FL,dep,match,l,3.2,1,dep,3,low,dep,red
1125,xtld2mlddm,de,image-slider-response,ek05an20,3748,conJudg,-100,LF,dep,match,l,3.2,1,dep,3,low,dep,red
1125,g6wblx1ehg,en,image-slider-response,aj05er02,4587,conJudg,100,FL,dep,match,l,3.2,1,dep,3,low,dep,red
1175,0ypu8hv44k,de,image-slider-response,en06oi05,3345,conJudg,64,LF,dep,match,h,3.1,1,dep,3,high,dep,blue
1175,po0zyzo9vq,de,image-slider-response,we06ed23,2346,conJudg,33,FL,dep,match,h,3.1,1,dep,3,high,dep,blue
1175,dy38rvvnxc,de,image-slider-response,rf07er10,5105,conJudg,-6,LF,dep,match,h,3.1,1,dep,3,high,dep,blue
1175,f00qbt8xgh,en,image-slider-response,NE07SE16,3825,conJudg,100,FL,dep,match,h,3.1,1,dep,3,high,dep,blue
1175,fnul5v7u0c,en,image-slider-response,ng06rd26,2930,conJudg,-39,LF,dep,match,h,3.1,1,dep,3,high,dep,blue
1175,ptl3djnzo5,de,image-slider-response,el06nd29,2972,conJudg,68,FL,dep,match,h,3.1,1,dep,3,high,dep,blue
1175,owwgbas786,en,image-slider-response,ke09im08,2390,conJudg,100,FL,dep,match,h,3.1,1,dep,3,high,dep,blue
1175,temg3es1km,de,image-slider-response,VA04RG03,3600,conJudg,-32,LF,dep,match,h,3.1,1,dep,3,high,dep,blue
1175,5baebfz1ea,en,image-slider-response,Ya05an03,2656,conJudg,100,FL,dep,match,h,3.1,1,dep,3,high,dep,blue
1175,l2tdyj71gq,de,image-slider-response,er04as06,2834,conJudg,100,LF,dep,match,h,3.1,1,dep,3,high,dep,blue
1175,40757xtlgp,en,image-slider-response,va05er24,3738,conJudg,100,FL,dep,match,h,3.1,1,dep,3,high,dep,blue
1175,mj8qhhm23d,de,image-slider-response,va08im28,2306,conJudg,100,FL,dep,match,h,3.1,1,dep,3,high,dep,blue
1175,wmv7c0r6c5,en,image-slider-response,va04ik29,2967,conJudg,100,FL,dep,match,h,3.1,1,dep,3,high,dep,blue
1175,mn35br66m1,de,image-slider-response,IS05RY26,3994,conJudg,100,FL,dep,match,h,3.1,1,dep,3,high,dep,blue
1175,zm0cozjsh6,en,image-slider-response,al05rt16,3202,conJudg,100,FL,dep,match,h,3.1,1,dep,3,high,dep,blue
1175,s48cjlol2y,de,image-slider-response,er04rt18,2521,conJudg,90,FL,dep,match,h,3.1,1,dep,3,high,dep,blue
1175,75e8k8531m,en,image-slider-response,tz05yu04,3110,conJudg,100,FL,dep,match,h,3.1,1,dep,3,high,dep,blue
1175,kbwv2blq88,de,image-slider-response,el09rd31,2983,conJudg,0,LF,dep,match,h,3.1,1,dep,3,high,dep,blue
1175,u9vce3hluj,de,image-slider-response,ne05ar22,2092,conJudg,100,LF,dep,match,h,3.1,1,dep,3,high,dep,blue
1175,ty0rq2vzkd,en,image-slider-response,eh06in06,3378,conJudg,-100,LF,dep,match,h,3.1,1,dep,3,high,dep,blue
1175,yjk8vlfumr,de,image-slider-response,dt06as01,2042,conJudg,0,LF,dep,match,h,3.1,1,dep,3,high,dep,blue
1175,tbo3kx7lyg,de,image-slider-response,ke06ng04,4336,conJudg,45,FL,dep,match,h,3.1,1,dep,3,high,dep,blue
1175,plssjv82xb,de,image-slider-response,Fr.11:45,2040,conJudg,0,LF,dep,match,h,3.1,1,dep,3,high,dep,blue
1175,ltyqe11amm,de,image-slider-response,er05in25,4875,conJudg,83,FL,dep,match,h,3.1,1,dep,3,high,dep,blue
1175,75db5dymcw,de,image-slider-response,er05en16,4314,conJudg,27,FL,dep,match,h,3.1,1,dep,3,high,dep,blue
1175,19l91w0hqd,en,image-slider-response,NE07SE16,3283,conJudg,100,FL,dep,match,h,3.1,1,dep,3,high,dep,blue
1175,3zzac4tx1p,en,image-slider-response,on03as29,4359,conJudg,44,LF,dep,match,h,3.1,1,dep,3,high,dep,blue
1175,ro2w51u9qx,de,image-slider-response,ER04AV16,2819,conJudg,92,LF,dep,match,h,3.1,1,dep,3,high,dep,blue
1175,khlkyd4sl5,en,image-slider-response,en04az24,3519,conJudg,99,FL,dep,match,h,3.1,1,dep,3,high,dep,blue
1175,nlsem5jp13,de,image-slider-response,pf06nd18,3024,conJudg,89,LF,dep,match,h,3.1,1,dep,3,high,dep,blue
1175,kpfcu6m48v,en,image-slider-response,in07er09,3218,conJudg,87,FL,dep,match,h,3.1,1,dep,3,high,dep,blue
1175,csfpvftfnx,de,image-slider-response,ko05or02,3950,conJudg,100,LF,dep,match,h,3.1,1,dep,3,high,dep,blue
1175,3yxnw7xt1g,de,image-slider-response,cz06an18,3172,conJudg,100,FL,dep,match,h,3.1,1,dep,3,high,dep,blue
1175,nbzeelogn1,en,image-slider-response,AL05AR15,2712,conJudg,72,FL,dep,match,h,3.1,1,dep,3,high,dep,blue
1175,et8whud6pz,en,image-slider-response,er07el13,2922,conJudg,100,LF,dep,match,h,3.1,1,dep,3,high,dep,blue
1175,td2t8o9pe4,de,image-slider-response,HL06IN19,1869,conJudg,-100,FL,dep,match,h,3.1,1,dep,3,high,dep,blue
1175,1nbemfkd3a,de,image-slider-response,KE05KO08,5277,conJudg,-39,FL,dep,match,h,3.1,1,dep,3,high,dep,blue
1175,99v3ayruzp,de,image-slider-response,ki04as07,2786,conJudg,-76,LF,dep,match,h,3.1,1,dep,3,high,dep,blue
1175,pc9v71lhle,en,image-slider-response,nd05rt12,3970,conJudg,83,LF,dep,match,h,3.1,1,dep,3,high,dep,blue
1175,22elk0nh1m,de,image-slider-response,er08rd25,2780,conJudg,100,LF,dep,match,h,3.1,1,dep,3,high,dep,blue
1175,hhm1sss4hy,en,image-slider-response,mi06ka18,2236,conJudg,100,FL,dep,match,h,3.1,1,dep,3,high,dep,blue
1175,wg3u6jr0nh,en,image-slider-response,ic07ir25,3730,conJudg,36,LF,dep,match,h,3.1,1,dep,3,high,dep,blue
1175,cdnsgh8l6s,de,image-slider-response,RL05OR28,2999,conJudg,100,FL,dep,match,h,3.1,1,dep,3,high,dep,blue
1175,xtld2mlddm,de,image-slider-response,ek05an20,NA,conJudg,NA,LF,dep,match,h,3.1,1,dep,3,high,dep,blue
1175,zgrkqwru88,en,image-slider-response,as04co18,3398,conJudg,100,LF,dep,match,h,3.1,1,dep,3,high,dep,blue
1175,f0xfptzqrg,de,image-slider-response,ay05em02,4647,conJudg,100,LF,dep,match,h,3.1,1,dep,3,high,dep,blue
1175,7908vbmsu0,en,image-slider-response,en19ao08,6038,conJudg,100,LF,dep,match,h,3.1,1,dep,3,high,dep,blue
1175,0e2jb9zq47,en,image-slider-response,UAJIIN24,4495,conJudg,47,FL,dep,match,h,3.1,1,dep,3,high,dep,blue
1175,408x5p8cy7,en,image-slider-response,va08ar03,3483,conJudg,-85,LF,dep,match,h,3.1,1,dep,3,high,dep,blue
1175,7xgb6axxfk,de,image-slider-response,rf07as06,3580,conJudg,91,FL,dep,match,h,3.1,1,dep,3,high,dep,blue
1175,w6nynz57oc,en,image-slider-response,tz03as24,2781,conJudg,100,LF,dep,match,h,3.1,1,dep,3,high,dep,blue
1175,dt4f26xnjv,en,image-slider-response,ER04LF09,3228,conJudg,100,FL,dep,match,h,3.1,1,dep,3,high,dep,blue
1175,kk4adj1drx,de,image-slider-response,en05es25,3366,conJudg,100,LF,dep,match,h,3.1,1,dep,3,high,dep,blue
1175,9kjfelsstb,en,image-slider-response,er09ch20,2497,conJudg,100,FL,dep,match,h,3.1,1,dep,3,high,dep,blue
1175,z15jvz5weu,en,image-slider-response,gh09er15,5609,conJudg,37,FL,dep,match,h,3.1,1,dep,3,high,dep,blue
1175,wuvcv75zvq,de,image-slider-response,VA04RD11,NA,conJudg,NA,FL,dep,match,h,3.1,1,dep,3,high,dep,blue
1175,9dovdyxkak,de,image-slider-response,er09us26,2743,conJudg,100,LF,dep,match,h,3.1,1,dep,3,high,dep,blue
1175,acgok0jj2j,de,image-slider-response,VO06AS02,2024,conJudg,100,LF,dep,match,h,3.1,1,dep,3,high,dep,blue
1175,sob32efsmd,en,image-slider-response,qi02ng28,2462,conJudg,32,FL,dep,match,h,3.1,1,dep,3,high,dep,blue
1175,atap00wwqb,en,image-slider-response,ft08en25,4025,conJudg,100,FL,dep,match,h,3.1,1,dep,3,high,dep,blue
1175,re8dk0velw,en,image-slider-response,ic25an08,7499,conJudg,73,LF,dep,match,h,3.1,1,dep,3,high,dep,blue
1175,1x4fxyrk6x,en,image-slider-response,de05nk26,1304,conJudg,0,LF,dep,match,h,3.1,1,dep,3,high,dep,blue
1175,g4m3kbu4rq,en,image-slider-response,ER04LF09,3682,conJudg,100,LF,dep,match,h,3.1,1,dep,3,high,dep,blue
1175,uf6pxq0fzv,en,image-slider-response,RG06DY30,1558,conJudg,100,FL,dep,match,h,3.1,1,dep,3,high,dep,blue
1175,nav0ha06h4,en,image-slider-response,TZ07ER11,4598,conJudg,-67,LF,dep,match,h,3.1,1,dep,3,high,dep,blue
1175,forzsbtguz,en,image-slider-response,ng06an28,2934,conJudg,100,LF,dep,match,h,3.1,1,dep,3,high,dep,blue
1175,ulvf1nlewe,de,image-slider-response,ia04an16,7566,conJudg,51,LF,dep,match,h,3.1,1,dep,3,high,dep,blue
1175,bhjyudy7kq,de,image-slider-response,IC06IR09,3365,conJudg,51,FL,dep,match,h,3.1,1,dep,3,high,dep,blue
1175,43qjs0ts63,en,image-slider-response,la07as21,2354,conJudg,100,FL,dep,match,h,3.1,1,dep,3,high,dep,blue
1175,7ksbngduvy,en,image-slider-response,ng09ei12,2761,conJudg,100,FL,dep,match,h,3.1,1,dep,3,high,dep,blue
1175,et4cc4zeqy,de,image-slider-response,er08an21,3378,conJudg,100,FL,dep,match,h,3.1,1,dep,3,high,dep,blue
1175,zq7k8hkxsq,de,image-slider-response,fa05ea13,3599,conJudg,100,FL,dep,match,h,3.1,1,dep,3,high,dep,blue
1175,9zuef86ced,de,image-slider-response,rz06as26,3668,conJudg,100,FL,dep,match,h,3.1,1,dep,3,high,dep,blue
1175,w1htsndwg2,en,image-slider-response,bo05ou27,7501,conJudg,100,LF,dep,match,h,3.1,1,dep,3,high,dep,blue
1175,zt9mew4cym,de,image-slider-response,el06ng23,2792,conJudg,51,LF,dep,match,h,3.1,1,dep,3,high,dep,blue
1175,7jmcv9rt87,en,image-slider-response,nd05ff22,3122,conJudg,100,FL,dep,match,h,3.1,1,dep,3,high,dep,blue
1175,eyn4ys1wrs,en,image-slider-response,va07il15,3426,conJudg,68,FL,dep,match,h,3.1,1,dep,3,high,dep,blue
1175,4xjqd36lab,en,image-slider-response,un08ta23,4755,conJudg,45,LF,dep,match,h,3.1,1,dep,3,high,dep,blue
1175,c7w24j9nfq,de,image-slider-response,ck05ng18,3123,conJudg,100,LF,dep,match,h,3.1,1,dep,3,high,dep,blue
1175,dqehnfb6j7,en,image-slider-response,er08em17,5408,conJudg,100,FL,dep,match,h,3.1,1,dep,3,high,dep,blue
1175,8vhxe9t9g0,en,image-slider-response,ke05us31,2809,conJudg,100,FL,dep,match,h,3.1,1,dep,3,high,dep,blue
1175,7jnze5y1xt,de,image-slider-response,er07rg24,1424,conJudg,-40,FL,dep,match,h,3.1,1,dep,3,high,dep,blue
1175,a7hqcrbor2,de,image-slider-response,ll08ar27,2472,conJudg,100,FL,dep,match,h,3.1,1,dep,3,high,dep,blue
1175,osnv2y9pl1,en,image-slider-response,af05ra11,5482,conJudg,48,LF,dep,match,h,3.1,1,dep,3,high,dep,blue
1175,p0ob2fsrsp,de,image-slider-response,lu04rk02,2344,conJudg,100,LF,dep,match,h,3.1,1,dep,3,high,dep,blue
1175,yzwvuo5jcw,en,image-slider-response,ya08ya01,3010,conJudg,52,LF,dep,match,h,3.1,1,dep,3,high,dep,blue
1175,emk1tsfc0c,en,image-slider-response,dt05as10,3358,conJudg,99,FL,dep,match,h,3.1,1,dep,3,high,dep,blue
1175,g8yr0b9yda,en,image-slider-response,er07im06,3342,conJudg,24,LF,dep,match,h,3.1,1,dep,3,high,dep,blue
1175,gjq6le86au,en,image-slider-response,NG09US28,3593,conJudg,-44,LF,dep,match,h,3.1,1,dep,3,high,dep,blue
1175,wrmngomh1f,de,image-slider-response,at08ed04,3464,conJudg,100,LF,dep,match,h,3.1,1,dep,3,high,dep,blue
1175,5jpxbwcfh4,de,image-slider-response,el06as26,2231,conJudg,-52,FL,dep,match,h,3.1,1,dep,3,high,dep,blue
1175,490hj15f5l,en,image-slider-response,el05rd15,2559,conJudg,100,LF,dep,match,h,3.1,1,dep,3,high,dep,blue
1175,f64ncrzxu3,en,image-slider-response,NS08US09,2723,conJudg,100,LF,dep,match,h,3.1,1,dep,3,high,dep,blue
1175,2z8ekchs9g,en,image-slider-response,rt08ed02,2514,conJudg,62,FL,dep,match,h,3.1,1,dep,3,high,dep,blue
1175,g6wblx1ehg,en,image-slider-response,aj05er02,5283,conJudg,99,FL,dep,match,h,3.1,1,dep,3,high,dep,blue
1175,7acm8wjh3r,en,image-slider-response,na09ay17,4325,conJudg,47,LF,dep,match,h,3.1,1,dep,3,high,dep,blue
1175,g0qt0dz9h6,en,image-slider-response,LD05ND12,2758,conJudg,100,FL,dep,match,h,3.1,1,dep,3,high,dep,blue
1175,asumwjv4nj,en,image-slider-response,ne06je04,2433,conJudg,100,LF,dep,match,h,3.1,1,dep,3,high,dep,blue
1175,9hgljjcs6a,de,image-slider-response,ER06RD19,3491,conJudg,79,FL,dep,match,h,3.1,1,dep,3,high,dep,blue
1225,xtld2mlddm,de,image-slider-response,ek05an20,5300,conJudg,-59,LF,dep,match,l,3.2,2,dep,3,low,dep,red
1225,3yxnw7xt1g,de,image-slider-response,cz06an18,2988,conJudg,-100,FL,dep,match,l,3.2,2,dep,3,low,dep,red
1225,tbo3kx7lyg,de,image-slider-response,ke06ng04,2958,conJudg,37,FL,dep,match,l,3.2,2,dep,3,low,dep,red
1225,z15jvz5weu,en,image-slider-response,gh09er15,3193,conJudg,100,FL,dep,match,l,3.2,2,dep,3,low,dep,red
1225,99v3ayruzp,de,image-slider-response,ki04as07,1736,conJudg,-35,LF,dep,match,l,3.2,2,dep,3,low,dep,red
1225,hhm1sss4hy,en,image-slider-response,mi06ka18,2721,conJudg,65,FL,dep,match,l,3.2,2,dep,3,low,dep,red
1225,cdnsgh8l6s,de,image-slider-response,RL05OR28,3060,conJudg,28,FL,dep,match,l,3.2,2,dep,3,low,dep,red
1225,5jpxbwcfh4,de,image-slider-response,el06as26,2283,conJudg,-100,FL,dep,match,l,3.2,2,dep,3,low,dep,red
1225,3zzac4tx1p,en,image-slider-response,on03as29,5150,conJudg,21,LF,dep,match,l,3.2,2,dep,3,low,dep,red
1225,td2t8o9pe4,de,image-slider-response,HL06IN19,2594,conJudg,-100,FL,dep,match,l,3.2,2,dep,3,low,dep,red
1225,yzwvuo5jcw,en,image-slider-response,ya08ya01,4606,conJudg,-100,LF,dep,match,l,3.2,2,dep,3,low,dep,red
1225,wmv7c0r6c5,en,image-slider-response,va04ik29,4288,conJudg,100,FL,dep,match,l,3.2,2,dep,3,low,dep,red
1225,acgok0jj2j,de,image-slider-response,VO06AS02,2283,conJudg,48,LF,dep,match,l,3.2,2,dep,3,low,dep,red
1225,kpfcu6m48v,en,image-slider-response,in07er09,3338,conJudg,24,FL,dep,match,l,3.2,2,dep,3,low,dep,red
1225,7acm8wjh3r,en,image-slider-response,na09ay17,3798,conJudg,-100,LF,dep,match,l,3.2,2,dep,3,low,dep,red
1225,s48cjlol2y,de,image-slider-response,er04rt18,3743,conJudg,-93,FL,dep,match,l,3.2,2,dep,3,low,dep,red
1225,kk4adj1drx,de,image-slider-response,en05es25,18,conJudg,0,LF,dep,match,l,3.2,2,dep,3,low,dep,red
1225,ro2w51u9qx,de,image-slider-response,ER04AV16,2426,conJudg,58,LF,dep,match,l,3.2,2,dep,3,low,dep,red
1225,nlsem5jp13,de,image-slider-response,pf06nd18,4519,conJudg,0,LF,dep,match,l,3.2,2,dep,3,low,dep,red
1225,uf6pxq0fzv,en,image-slider-response,RG06DY30,6860,conJudg,-100,FL,dep,match,l,3.2,2,dep,3,low,dep,red
1225,g4m3kbu4rq,en,image-slider-response,ER04LF09,2398,conJudg,0,LF,dep,match,l,3.2,2,dep,3,low,dep,red
1225,7908vbmsu0,en,image-slider-response,en19ao08,2410,conJudg,-100,LF,dep,match,l,3.2,2,dep,3,low,dep,red
1225,zt9mew4cym,de,image-slider-response,el06ng23,4916,conJudg,-95,LF,dep,match,l,3.2,2,dep,3,low,dep,red
1225,yjk8vlfumr,de,image-slider-response,dt06as01,2238,conJudg,23,LF,dep,match,l,3.2,2,dep,3,low,dep,red
1225,408x5p8cy7,en,image-slider-response,va08ar03,4650,conJudg,63,LF,dep,match,l,3.2,2,dep,3,low,dep,red
1225,7jnze5y1xt,de,image-slider-response,er07rg24,3403,conJudg,42,FL,dep,match,l,3.2,2,dep,3,low,dep,red
1225,f00qbt8xgh,en,image-slider-response,NE07SE16,3834,conJudg,18,FL,dep,match,l,3.2,2,dep,3,low,dep,red
1225,f0xfptzqrg,de,image-slider-response,ay05em02,3564,conJudg,100,LF,dep,match,l,3.2,2,dep,3,low,dep,red
1225,0ypu8hv44k,de,image-slider-response,en06oi05,2352,conJudg,-100,LF,dep,match,l,3.2,2,dep,3,low,dep,red
1225,a7hqcrbor2,de,image-slider-response,ll08ar27,2728,conJudg,-100,FL,dep,match,l,3.2,2,dep,3,low,dep,red
1225,bhjyudy7kq,de,image-slider-response,IC06IR09,3118,conJudg,45,FL,dep,match,l,3.2,2,dep,3,low,dep,red
1225,19l91w0hqd,en,image-slider-response,NE07SE16,3640,conJudg,-56,FL,dep,match,l,3.2,2,dep,3,low,dep,red
1225,490hj15f5l,en,image-slider-response,el05rd15,2837,conJudg,-31,LF,dep,match,l,3.2,2,dep,3,low,dep,red
1225,ltyqe11amm,de,image-slider-response,er05in25,5014,conJudg,53,FL,dep,match,l,3.2,2,dep,3,low,dep,red
1225,43qjs0ts63,en,image-slider-response,la07as21,2968,conJudg,-100,FL,dep,match,l,3.2,2,dep,3,low,dep,red
1225,7xgb6axxfk,de,image-slider-response,rf07as06,3400,conJudg,-80,FL,dep,match,l,3.2,2,dep,3,low,dep,red
1225,mn35br66m1,de,image-slider-response,IS05RY26,4608,conJudg,-100,FL,dep,match,l,3.2,2,dep,3,low,dep,red
1225,7jmcv9rt87,en,image-slider-response,nd05ff22,6095,conJudg,-55,FL,dep,match,l,3.2,2,dep,3,low,dep,red
1225,w6nynz57oc,en,image-slider-response,tz03as24,2484,conJudg,-100,LF,dep,match,l,3.2,2,dep,3,low,dep,red
1225,gjq6le86au,en,image-slider-response,NG09US28,1603,conJudg,0,LF,dep,match,l,3.2,2,dep,3,low,dep,red
1225,9hgljjcs6a,de,image-slider-response,ER06RD19,5768,conJudg,-63,FL,dep,match,l,3.2,2,dep,3,low,dep,red
1225,pc9v71lhle,en,image-slider-response,nd05rt12,2787,conJudg,-100,LF,dep,match,l,3.2,2,dep,3,low,dep,red
1225,f64ncrzxu3,en,image-slider-response,NS08US09,4463,conJudg,-100,LF,dep,match,l,3.2,2,dep,3,low,dep,red
1225,40757xtlgp,en,image-slider-response,va05er24,2286,conJudg,-100,FL,dep,match,l,3.2,2,dep,3,low,dep,red
1225,zgrkqwru88,en,image-slider-response,as04co18,3692,conJudg,-100,LF,dep,match,l,3.2,2,dep,3,low,dep,red
1225,w1htsndwg2,en,image-slider-response,bo05ou27,1902,conJudg,0,LF,dep,match,l,3.2,2,dep,3,low,dep,red
1225,atap00wwqb,en,image-slider-response,ft08en25,5307,conJudg,75,FL,dep,match,l,3.2,2,dep,3,low,dep,red
1225,75db5dymcw,de,image-slider-response,er05en16,2402,conJudg,-18,FL,dep,match,l,3.2,2,dep,3,low,dep,red
1225,c7w24j9nfq,de,image-slider-response,ck05ng18,2439,conJudg,-100,LF,dep,match,l,3.2,2,dep,3,low,dep,red
1225,dt4f26xnjv,en,image-slider-response,ER04LF09,2227,conJudg,0,FL,dep,match,l,3.2,2,dep,3,low,dep,red
1225,4xjqd36lab,en,image-slider-response,un08ta23,3947,conJudg,0,LF,dep,match,l,3.2,2,dep,3,low,dep,red
1225,75e8k8531m,en,image-slider-response,tz05yu04,3444,conJudg,-22,FL,dep,match,l,3.2,2,dep,3,low,dep,red
1225,7ksbngduvy,en,image-slider-response,ng09ei12,4963,conJudg,100,FL,dep,match,l,3.2,2,dep,3,low,dep,red
1225,9kjfelsstb,en,image-slider-response,er09ch20,2996,conJudg,-100,FL,dep,match,l,3.2,2,dep,3,low,dep,red
1225,9zuef86ced,de,image-slider-response,rz06as26,2577,conJudg,-100,FL,dep,match,l,3.2,2,dep,3,low,dep,red
1225,csfpvftfnx,de,image-slider-response,ko05or02,NA,conJudg,NA,LF,dep,match,l,3.2,2,dep,3,low,dep,red
1225,dqehnfb6j7,en,image-slider-response,er08em17,2175,conJudg,0,FL,dep,match,l,3.2,2,dep,3,low,dep,red
1225,ty0rq2vzkd,en,image-slider-response,eh06in06,2518,conJudg,100,LF,dep,match,l,3.2,2,dep,3,low,dep,red
1225,zq7k8hkxsq,de,image-slider-response,fa05ea13,3930,conJudg,-100,FL,dep,match,l,3.2,2,dep,3,low,dep,red
1225,fnul5v7u0c,en,image-slider-response,ng06rd26,4180,conJudg,50,LF,dep,match,l,3.2,2,dep,3,low,dep,red
1225,et4cc4zeqy,de,image-slider-response,er08an21,4580,conJudg,-75,FL,dep,match,l,3.2,2,dep,3,low,dep,red
1225,re8dk0velw,en,image-slider-response,ic25an08,4613,conJudg,63,LF,dep,match,l,3.2,2,dep,3,low,dep,red
1225,po0zyzo9vq,de,image-slider-response,we06ed23,4826,conJudg,-19,FL,dep,match,l,3.2,2,dep,3,low,dep,red
1225,et8whud6pz,en,image-slider-response,er07el13,3251,conJudg,29,LF,dep,match,l,3.2,2,dep,3,low,dep,red
1225,wrmngomh1f,de,image-slider-response,at08ed04,2758,conJudg,-100,LF,dep,match,l,3.2,2,dep,3,low,dep,red
1225,9dovdyxkak,de,image-slider-response,er09us26,2806,conJudg,-100,LF,dep,match,l,3.2,2,dep,3,low,dep,red
1225,0e2jb9zq47,en,image-slider-response,UAJIIN24,4623,conJudg,38,FL,dep,match,l,3.2,2,dep,3,low,dep,red
1225,plssjv82xb,de,image-slider-response,Fr.11:45,NA,conJudg,NA,LF,dep,match,l,3.2,2,dep,3,low,dep,red
1225,emk1tsfc0c,en,image-slider-response,dt05as10,4665,conJudg,-98,FL,dep,match,l,3.2,2,dep,3,low,dep,red
1225,p0ob2fsrsp,de,image-slider-response,lu04rk02,3676,conJudg,28,LF,dep,match,l,3.2,2,dep,3,low,dep,red
1225,nav0ha06h4,en,image-slider-response,TZ07ER11,2450,conJudg,57,LF,dep,match,l,3.2,2,dep,3,low,dep,red
1225,ptl3djnzo5,de,image-slider-response,el06nd29,7492,conJudg,36,FL,dep,match,l,3.2,2,dep,3,low,dep,red
1225,eyn4ys1wrs,en,image-slider-response,va07il15,3970,conJudg,65,FL,dep,match,l,3.2,2,dep,3,low,dep,red
1225,asumwjv4nj,en,image-slider-response,ne06je04,2524,conJudg,-100,LF,dep,match,l,3.2,2,dep,3,low,dep,red
1225,owwgbas786,en,image-slider-response,ke09im08,1979,conJudg,0,FL,dep,match,l,3.2,2,dep,3,low,dep,red
1225,2z8ekchs9g,en,image-slider-response,rt08ed02,2116,conJudg,100,FL,dep,match,l,3.2,2,dep,3,low,dep,red
1225,osnv2y9pl1,en,image-slider-response,af05ra11,3308,conJudg,67,LF,dep,match,l,3.2,2,dep,3,low,dep,red
1225,g0qt0dz9h6,en,image-slider-response,LD05ND12,4614,conJudg,-58,FL,dep,match,l,3.2,2,dep,3,low,dep,red
1225,l2tdyj71gq,de,image-slider-response,er04as06,2286,conJudg,100,LF,dep,match,l,3.2,2,dep,3,low,dep,red
1225,wg3u6jr0nh,en,image-slider-response,ic07ir25,3231,conJudg,-4,LF,dep,match,l,3.2,2,dep,3,low,dep,red
1225,temg3es1km,de,image-slider-response,VA04RG03,2300,conJudg,36,LF,dep,match,l,3.2,2,dep,3,low,dep,red
1225,nbzeelogn1,en,image-slider-response,AL05AR15,3094,conJudg,0,FL,dep,match,l,3.2,2,dep,3,low,dep,red
1225,8vhxe9t9g0,en,image-slider-response,ke05us31,4208,conJudg,60,FL,dep,match,l,3.2,2,dep,3,low,dep,red
1225,sob32efsmd,en,image-slider-response,qi02ng28,2341,conJudg,-41,FL,dep,match,l,3.2,2,dep,3,low,dep,red
1225,1nbemfkd3a,de,image-slider-response,KE05KO08,5459,conJudg,24,FL,dep,match,l,3.2,2,dep,3,low,dep,red
1225,ulvf1nlewe,de,image-slider-response,ia04an16,4453,conJudg,100,LF,dep,match,l,3.2,2,dep,3,low,dep,red
1225,mj8qhhm23d,de,image-slider-response,va08im28,3357,conJudg,-29,FL,dep,match,l,3.2,2,dep,3,low,dep,red
1225,kbwv2blq88,de,image-slider-response,el09rd31,1486,conJudg,0,LF,dep,match,l,3.2,2,dep,3,low,dep,red
1225,g8yr0b9yda,en,image-slider-response,er07im06,4639,conJudg,0,LF,dep,match,l,3.2,2,dep,3,low,dep,red
1225,forzsbtguz,en,image-slider-response,ng06an28,2931,conJudg,-100,LF,dep,match,l,3.2,2,dep,3,low,dep,red
1225,22elk0nh1m,de,image-slider-response,er08rd25,2853,conJudg,-100,LF,dep,match,l,3.2,2,dep,3,low,dep,red
1225,dy38rvvnxc,de,image-slider-response,rf07er10,4012,conJudg,53,LF,dep,match,l,3.2,2,dep,3,low,dep,red
1225,5baebfz1ea,en,image-slider-response,Ya05an03,2007,conJudg,100,FL,dep,match,l,3.2,2,dep,3,low,dep,red
1225,wuvcv75zvq,de,image-slider-response,VA04RD11,NA,conJudg,NA,FL,dep,match,l,3.2,2,dep,3,low,dep,red
1225,zm0cozjsh6,en,image-slider-response,al05rt16,2451,conJudg,30,FL,dep,match,l,3.2,2,dep,3,low,dep,red
1225,u9vce3hluj,de,image-slider-response,ne05ar22,4003,conJudg,62,LF,dep,match,l,3.2,2,dep,3,low,dep,red
1225,khlkyd4sl5,en,image-slider-response,en04az24,3269,conJudg,-80,FL,dep,match,l,3.2,2,dep,3,low,dep,red
1225,g6wblx1ehg,en,image-slider-response,aj05er02,5970,conJudg,0,FL,dep,match,l,3.2,2,dep,3,low,dep,red
1225,1x4fxyrk6x,en,image-slider-response,de05nk26,1568,conJudg,0,LF,dep,match,l,3.2,2,dep,3,low,dep,red
125,wmv7c0r6c5,en,image-slider-response,va04ik29,2420,conJudg,-100,FL,tob,match,l,1.2,1,tob,1,low,tob,purple
125,nbzeelogn1,en,image-slider-response,AL05AR15,2788,conJudg,-100,FL,tob,match,l,1.2,1,tob,1,low,tob,purple
125,2z8ekchs9g,en,image-slider-response,rt08ed02,2448,conJudg,76,FL,tob,match,l,1.2,1,tob,1,low,tob,purple
125,kpfcu6m48v,en,image-slider-response,in07er09,4777,conJudg,-52,FL,tob,match,l,1.2,1,tob,1,low,tob,purple
125,a7hqcrbor2,de,image-slider-response,ll08ar27,5384,conJudg,100,FL,tob,match,l,1.2,1,tob,1,low,tob,purple
125,nav0ha06h4,en,image-slider-response,TZ07ER11,2528,conJudg,-100,LF,tob,match,l,1.2,1,tob,1,low,tob,purple
125,22elk0nh1m,de,image-slider-response,er08rd25,3353,conJudg,-100,LF,tob,match,l,1.2,1,tob,1,low,tob,purple
125,0e2jb9zq47,en,image-slider-response,UAJIIN24,4731,conJudg,-48,FL,tob,match,l,1.2,1,tob,1,low,tob,purple
125,kk4adj1drx,de,image-slider-response,en05es25,4097,conJudg,79,LF,tob,match,l,1.2,1,tob,1,low,tob,purple
125,75e8k8531m,en,image-slider-response,tz05yu04,3996,conJudg,31,FL,tob,match,l,1.2,1,tob,1,low,tob,purple
125,et8whud6pz,en,image-slider-response,er07el13,2574,conJudg,-100,LF,tob,match,l,1.2,1,tob,1,low,tob,purple
125,zq7k8hkxsq,de,image-slider-response,fa05ea13,6147,conJudg,100,FL,tob,match,l,1.2,1,tob,1,low,tob,purple
125,pc9v71lhle,en,image-slider-response,nd05rt12,2991,conJudg,-100,LF,tob,match,l,1.2,1,tob,1,low,tob,purple
125,c7w24j9nfq,de,image-slider-response,ck05ng18,1821,conJudg,-100,LF,tob,match,l,1.2,1,tob,1,low,tob,purple
125,43qjs0ts63,en,image-slider-response,la07as21,2569,conJudg,-100,FL,tob,match,l,1.2,1,tob,1,low,tob,purple
125,wuvcv75zvq,de,image-slider-response,VA04RD11,2422,conJudg,-100,FL,tob,match,l,1.2,1,tob,1,low,tob,purple
125,0ypu8hv44k,de,image-slider-response,en06oi05,2497,conJudg,-100,LF,tob,match,l,1.2,1,tob,1,low,tob,purple
125,re8dk0velw,en,image-slider-response,ic25an08,4313,conJudg,-74,LF,tob,match,l,1.2,1,tob,1,low,tob,purple
125,3yxnw7xt1g,de,image-slider-response,cz06an18,2146,conJudg,75,FL,tob,match,l,1.2,1,tob,1,low,tob,purple
125,yjk8vlfumr,de,image-slider-response,dt06as01,3193,conJudg,-35,LF,tob,match,l,1.2,1,tob,1,low,tob,purple
125,490hj15f5l,en,image-slider-response,el05rd15,4945,conJudg,27,LF,tob,match,l,1.2,1,tob,1,low,tob,purple
125,g8yr0b9yda,en,image-slider-response,er07im06,3364,conJudg,-19,LF,tob,match,l,1.2,1,tob,1,low,tob,purple
125,emk1tsfc0c,en,image-slider-response,dt05as10,NA,conJudg,NA,FL,tob,match,l,1.2,1,tob,1,low,tob,purple
125,khlkyd4sl5,en,image-slider-response,en04az24,3561,conJudg,-47,FL,tob,match,l,1.2,1,tob,1,low,tob,purple
125,s48cjlol2y,de,image-slider-response,er04rt18,3911,conJudg,-100,FL,tob,match,l,1.2,1,tob,1,low,tob,purple
125,g6wblx1ehg,en,image-slider-response,aj05er02,4085,conJudg,-100,FL,tob,match,l,1.2,1,tob,1,low,tob,purple
125,mn35br66m1,de,image-slider-response,IS05RY26,3834,conJudg,100,FL,tob,match,l,1.2,1,tob,1,low,tob,purple
125,7jnze5y1xt,de,image-slider-response,er07rg24,1731,conJudg,-38,FL,tob,match,l,1.2,1,tob,1,low,tob,purple
125,eyn4ys1wrs,en,image-slider-response,va07il15,3051,conJudg,100,FL,tob,match,l,1.2,1,tob,1,low,tob,purple
125,zm0cozjsh6,en,image-slider-response,al05rt16,2330,conJudg,-100,FL,tob,match,l,1.2,1,tob,1,low,tob,purple
125,cdnsgh8l6s,de,image-slider-response,RL05OR28,3201,conJudg,26,FL,tob,match,l,1.2,1,tob,1,low,tob,purple
125,fnul5v7u0c,en,image-slider-response,ng06rd26,2537,conJudg,-57,LF,tob,match,l,1.2,1,tob,1,low,tob,purple
125,75db5dymcw,de,image-slider-response,er05en16,2747,conJudg,-52,FL,tob,match,l,1.2,1,tob,1,low,tob,purple
125,1x4fxyrk6x,en,image-slider-response,de05nk26,2160,conJudg,0,LF,tob,match,l,1.2,1,tob,1,low,tob,purple
125,td2t8o9pe4,de,image-slider-response,HL06IN19,2313,conJudg,-100,FL,tob,match,l,1.2,1,tob,1,low,tob,purple
125,7jmcv9rt87,en,image-slider-response,nd05ff22,3073,conJudg,-100,FL,tob,match,l,1.2,1,tob,1,low,tob,purple
125,owwgbas786,en,image-slider-response,ke09im08,2414,conJudg,0,FL,tob,match,l,1.2,1,tob,1,low,tob,purple
125,5baebfz1ea,en,image-slider-response,Ya05an03,5897,conJudg,100,FL,tob,match,l,1.2,1,tob,1,low,tob,purple
125,yzwvuo5jcw,en,image-slider-response,ya08ya01,5429,conJudg,51,LF,tob,match,l,1.2,1,tob,1,low,tob,purple
125,plssjv82xb,de,image-slider-response,Fr.11:45,NA,conJudg,NA,LF,tob,match,l,1.2,1,tob,1,low,tob,purple
125,csfpvftfnx,de,image-slider-response,ko05or02,3453,conJudg,100,LF,tob,match,l,1.2,1,tob,1,low,tob,purple
125,atap00wwqb,en,image-slider-response,ft08en25,3634,conJudg,-100,FL,tob,match,l,1.2,1,tob,1,low,tob,purple
125,sob32efsmd,en,image-slider-response,qi02ng28,2313,conJudg,46,FL,tob,match,l,1.2,1,tob,1,low,tob,purple
125,po0zyzo9vq,de,image-slider-response,we06ed23,3356,conJudg,-55,FL,tob,match,l,1.2,1,tob,1,low,tob,purple
125,ltyqe11amm,de,image-slider-response,er05in25,3465,conJudg,72,FL,tob,match,l,1.2,1,tob,1,low,tob,purple
125,99v3ayruzp,de,image-slider-response,ki04as07,2537,conJudg,-100,LF,tob,match,l,1.2,1,tob,1,low,tob,purple
125,7acm8wjh3r,en,image-slider-response,na09ay17,4133,conJudg,-100,LF,tob,match,l,1.2,1,tob,1,low,tob,purple
125,kbwv2blq88,de,image-slider-response,el09rd31,1191,conJudg,0,LF,tob,match,l,1.2,1,tob,1,low,tob,purple
125,uf6pxq0fzv,en,image-slider-response,RG06DY30,4932,conJudg,-75,FL,tob,match,l,1.2,1,tob,1,low,tob,purple
125,temg3es1km,de,image-slider-response,VA04RG03,2000,conJudg,-76,LF,tob,match,l,1.2,1,tob,1,low,tob,purple
125,z15jvz5weu,en,image-slider-response,gh09er15,4297,conJudg,100,FL,tob,match,l,1.2,1,tob,1,low,tob,purple
125,w6nynz57oc,en,image-slider-response,tz03as24,3310,conJudg,-100,LF,tob,match,l,1.2,1,tob,1,low,tob,purple
125,g4m3kbu4rq,en,image-slider-response,ER04LF09,2812,conJudg,100,LF,tob,match,l,1.2,1,tob,1,low,tob,purple
125,7xgb6axxfk,de,image-slider-response,rf07as06,4178,conJudg,20,FL,tob,match,l,1.2,1,tob,1,low,tob,purple
125,40757xtlgp,en,image-slider-response,va05er24,4300,conJudg,-100,FL,tob,match,l,1.2,1,tob,1,low,tob,purple
125,19l91w0hqd,en,image-slider-response,NE07SE16,2168,conJudg,0,FL,tob,match,l,1.2,1,tob,1,low,tob,purple
125,dqehnfb6j7,en,image-slider-response,er08em17,2164,conJudg,100,FL,tob,match,l,1.2,1,tob,1,low,tob,purple
125,zgrkqwru88,en,image-slider-response,as04co18,6072,conJudg,79,LF,tob,match,l,1.2,1,tob,1,low,tob,purple
125,dt4f26xnjv,en,image-slider-response,ER04LF09,2006,conJudg,0,FL,tob,match,l,1.2,1,tob,1,low,tob,purple
125,wg3u6jr0nh,en,image-slider-response,ic07ir25,2315,conJudg,32,LF,tob,match,l,1.2,1,tob,1,low,tob,purple
125,tbo3kx7lyg,de,image-slider-response,ke06ng04,6049,conJudg,33,FL,tob,match,l,1.2,1,tob,1,low,tob,purple
125,zt9mew4cym,de,image-slider-response,el06ng23,3569,conJudg,-100,LF,tob,match,l,1.2,1,tob,1,low,tob,purple
125,nlsem5jp13,de,image-slider-response,pf06nd18,6104,conJudg,-100,LF,tob,match,l,1.2,1,tob,1,low,tob,purple
125,f64ncrzxu3,en,image-slider-response,NS08US09,4068,conJudg,100,LF,tob,match,l,1.2,1,tob,1,low,tob,purple
125,9dovdyxkak,de,image-slider-response,er09us26,3880,conJudg,63,LF,tob,match,l,1.2,1,tob,1,low,tob,purple
125,xtld2mlddm,de,image-slider-response,ek05an20,3540,conJudg,-100,LF,tob,match,l,1.2,1,tob,1,low,tob,purple
125,9hgljjcs6a,de,image-slider-response,ER06RD19,2694,conJudg,-100,FL,tob,match,l,1.2,1,tob,1,low,tob,purple
125,ro2w51u9qx,de,image-slider-response,ER04AV16,4724,conJudg,-40,LF,tob,match,l,1.2,1,tob,1,low,tob,purple
125,forzsbtguz,en,image-slider-response,ng06an28,3481,conJudg,100,LF,tob,match,l,1.2,1,tob,1,low,tob,purple
125,gjq6le86au,en,image-slider-response,NG09US28,4316,conJudg,31,LF,tob,match,l,1.2,1,tob,1,low,tob,purple
125,9zuef86ced,de,image-slider-response,rz06as26,2647,conJudg,-100,FL,tob,match,l,1.2,1,tob,1,low,tob,purple
125,mj8qhhm23d,de,image-slider-response,va08im28,6034,conJudg,41,FL,tob,match,l,1.2,1,tob,1,low,tob,purple
125,ptl3djnzo5,de,image-slider-response,el06nd29,3128,conJudg,-100,FL,tob,match,l,1.2,1,tob,1,low,tob,purple
125,acgok0jj2j,de,image-slider-response,VO06AS02,2062,conJudg,-100,LF,tob,match,l,1.2,1,tob,1,low,tob,purple
125,5jpxbwcfh4,de,image-slider-response,el06as26,2976,conJudg,-100,FL,tob,match,l,1.2,1,tob,1,low,tob,purple
125,8vhxe9t9g0,en,image-slider-response,ke05us31,3672,conJudg,100,FL,tob,match,l,1.2,1,tob,1,low,tob,purple
125,wrmngomh1f,de,image-slider-response,at08ed04,3793,conJudg,100,LF,tob,match,l,1.2,1,tob,1,low,tob,purple
125,osnv2y9pl1,en,image-slider-response,af05ra11,3262,conJudg,-100,LF,tob,match,l,1.2,1,tob,1,low,tob,purple
125,p0ob2fsrsp,de,image-slider-response,lu04rk02,5084,conJudg,-87,LF,tob,match,l,1.2,1,tob,1,low,tob,purple
125,1nbemfkd3a,de,image-slider-response,KE05KO08,3088,conJudg,-100,FL,tob,match,l,1.2,1,tob,1,low,tob,purple
125,ulvf1nlewe,de,image-slider-response,ia04an16,6234,conJudg,-12,LF,tob,match,l,1.2,1,tob,1,low,tob,purple
125,w1htsndwg2,en,image-slider-response,bo05ou27,2715,conJudg,0,LF,tob,match,l,1.2,1,tob,1,low,tob,purple
125,3zzac4tx1p,en,image-slider-response,on03as29,3767,conJudg,-49,LF,tob,match,l,1.2,1,tob,1,low,tob,purple
125,ty0rq2vzkd,en,image-slider-response,eh06in06,2393,conJudg,-100,LF,tob,match,l,1.2,1,tob,1,low,tob,purple
125,dy38rvvnxc,de,image-slider-response,rf07er10,3724,conJudg,-100,LF,tob,match,l,1.2,1,tob,1,low,tob,purple
125,bhjyudy7kq,de,image-slider-response,IC06IR09,6447,conJudg,91,FL,tob,match,l,1.2,1,tob,1,low,tob,purple
125,7908vbmsu0,en,image-slider-response,en19ao08,3184,conJudg,-100,LF,tob,match,l,1.2,1,tob,1,low,tob,purple
125,et4cc4zeqy,de,image-slider-response,er08an21,5545,conJudg,-54,FL,tob,match,l,1.2,1,tob,1,low,tob,purple
125,f0xfptzqrg,de,image-slider-response,ay05em02,3097,conJudg,-100,LF,tob,match,l,1.2,1,tob,1,low,tob,purple
125,g0qt0dz9h6,en,image-slider-response,LD05ND12,3448,conJudg,76,FL,tob,match,l,1.2,1,tob,1,low,tob,purple
125,l2tdyj71gq,de,image-slider-response,er04as06,4227,conJudg,100,LF,tob,match,l,1.2,1,tob,1,low,tob,purple
125,9kjfelsstb,en,image-slider-response,er09ch20,2814,conJudg,-77,FL,tob,match,l,1.2,1,tob,1,low,tob,purple
125,asumwjv4nj,en,image-slider-response,ne06je04,3019,conJudg,-33,LF,tob,match,l,1.2,1,tob,1,low,tob,purple
125,7ksbngduvy,en,image-slider-response,ng09ei12,2833,conJudg,100,FL,tob,match,l,1.2,1,tob,1,low,tob,purple
125,hhm1sss4hy,en,image-slider-response,mi06ka18,4797,conJudg,59,FL,tob,match,l,1.2,1,tob,1,low,tob,purple
125,u9vce3hluj,de,image-slider-response,ne05ar22,2764,conJudg,-100,LF,tob,match,l,1.2,1,tob,1,low,tob,purple
125,408x5p8cy7,en,image-slider-response,va08ar03,4770,conJudg,-78,LF,tob,match,l,1.2,1,tob,1,low,tob,purple
125,f00qbt8xgh,en,image-slider-response,NE07SE16,6691,conJudg,-18,FL,tob,match,l,1.2,1,tob,1,low,tob,purple
125,4xjqd36lab,en,image-slider-response,un08ta23,4770,conJudg,0,LF,tob,match,l,1.2,1,tob,1,low,tob,purple
1275,7908vbmsu0,en,image-slider-response,en19ao08,4048,conJudg,100,LF,dep,match,h,3.1,2,dep,3,high,dep,blue
1275,plssjv82xb,de,image-slider-response,Fr.11:45,4736,conJudg,0,LF,dep,match,h,3.1,2,dep,3,high,dep,blue
1275,7acm8wjh3r,en,image-slider-response,na09ay17,5508,conJudg,49,LF,dep,match,h,3.1,2,dep,3,high,dep,blue
1275,2z8ekchs9g,en,image-slider-response,rt08ed02,4353,conJudg,72,FL,dep,match,h,3.1,2,dep,3,high,dep,blue
1275,kbwv2blq88,de,image-slider-response,el09rd31,1579,conJudg,0,LF,dep,match,h,3.1,2,dep,3,high,dep,blue
1275,kpfcu6m48v,en,image-slider-response,in07er09,6682,conJudg,39,FL,dep,match,h,3.1,2,dep,3,high,dep,blue
1275,5baebfz1ea,en,image-slider-response,Ya05an03,2531,conJudg,100,FL,dep,match,h,3.1,2,dep,3,high,dep,blue
1275,ltyqe11amm,de,image-slider-response,er05in25,4049,conJudg,77,FL,dep,match,h,3.1,2,dep,3,high,dep,blue
1275,forzsbtguz,en,image-slider-response,ng06an28,2430,conJudg,100,LF,dep,match,h,3.1,2,dep,3,high,dep,blue
1275,75e8k8531m,en,image-slider-response,tz05yu04,2193,conJudg,100,FL,dep,match,h,3.1,2,dep,3,high,dep,blue
1275,9zuef86ced,de,image-slider-response,rz06as26,2382,conJudg,100,FL,dep,match,h,3.1,2,dep,3,high,dep,blue
1275,5jpxbwcfh4,de,image-slider-response,el06as26,2798,conJudg,-48,FL,dep,match,h,3.1,2,dep,3,high,dep,blue
1275,mj8qhhm23d,de,image-slider-response,va08im28,2485,conJudg,100,FL,dep,match,h,3.1,2,dep,3,high,dep,blue
1275,9dovdyxkak,de,image-slider-response,er09us26,3254,conJudg,100,LF,dep,match,h,3.1,2,dep,3,high,dep,blue
1275,ty0rq2vzkd,en,image-slider-response,eh06in06,2637,conJudg,-100,LF,dep,match,h,3.1,2,dep,3,high,dep,blue
1275,19l91w0hqd,en,image-slider-response,NE07SE16,3490,conJudg,91,FL,dep,match,h,3.1,2,dep,3,high,dep,blue
1275,ptl3djnzo5,de,image-slider-response,el06nd29,4859,conJudg,76,FL,dep,match,h,3.1,2,dep,3,high,dep,blue
1275,dqehnfb6j7,en,image-slider-response,er08em17,2353,conJudg,100,FL,dep,match,h,3.1,2,dep,3,high,dep,blue
1275,td2t8o9pe4,de,image-slider-response,HL06IN19,2486,conJudg,-96,FL,dep,match,h,3.1,2,dep,3,high,dep,blue
1275,c7w24j9nfq,de,image-slider-response,ck05ng18,3656,conJudg,100,LF,dep,match,h,3.1,2,dep,3,high,dep,blue
1275,s48cjlol2y,de,image-slider-response,er04rt18,4648,conJudg,100,FL,dep,match,h,3.1,2,dep,3,high,dep,blue
1275,dt4f26xnjv,en,image-slider-response,ER04LF09,2989,conJudg,100,FL,dep,match,h,3.1,2,dep,3,high,dep,blue
1275,3yxnw7xt1g,de,image-slider-response,cz06an18,2323,conJudg,100,FL,dep,match,h,3.1,2,dep,3,high,dep,blue
1275,7xgb6axxfk,de,image-slider-response,rf07as06,3868,conJudg,87,FL,dep,match,h,3.1,2,dep,3,high,dep,blue
1275,zq7k8hkxsq,de,image-slider-response,fa05ea13,3668,conJudg,100,FL,dep,match,h,3.1,2,dep,3,high,dep,blue
1275,owwgbas786,en,image-slider-response,ke09im08,2413,conJudg,100,FL,dep,match,h,3.1,2,dep,3,high,dep,blue
1275,wg3u6jr0nh,en,image-slider-response,ic07ir25,2198,conJudg,62,LF,dep,match,h,3.1,2,dep,3,high,dep,blue
1275,nbzeelogn1,en,image-slider-response,AL05AR15,3249,conJudg,-33,FL,dep,match,h,3.1,2,dep,3,high,dep,blue
1275,u9vce3hluj,de,image-slider-response,ne05ar22,2823,conJudg,100,LF,dep,match,h,3.1,2,dep,3,high,dep,blue
1275,khlkyd4sl5,en,image-slider-response,en04az24,2811,conJudg,64,FL,dep,match,h,3.1,2,dep,3,high,dep,blue
1275,wrmngomh1f,de,image-slider-response,at08ed04,3039,conJudg,100,LF,dep,match,h,3.1,2,dep,3,high,dep,blue
1275,408x5p8cy7,en,image-slider-response,va08ar03,3608,conJudg,-87,LF,dep,match,h,3.1,2,dep,3,high,dep,blue
1275,1nbemfkd3a,de,image-slider-response,KE05KO08,3096,conJudg,-63,FL,dep,match,h,3.1,2,dep,3,high,dep,blue
1275,7jmcv9rt87,en,image-slider-response,nd05ff22,4792,conJudg,100,FL,dep,match,h,3.1,2,dep,3,high,dep,blue
1275,fnul5v7u0c,en,image-slider-response,ng06rd26,4034,conJudg,-22,LF,dep,match,h,3.1,2,dep,3,high,dep,blue
1275,cdnsgh8l6s,de,image-slider-response,RL05OR28,3805,conJudg,100,FL,dep,match,h,3.1,2,dep,3,high,dep,blue
1275,wuvcv75zvq,de,image-slider-response,VA04RD11,3335,conJudg,100,FL,dep,match,h,3.1,2,dep,3,high,dep,blue
1275,22elk0nh1m,de,image-slider-response,er08rd25,2927,conJudg,100,LF,dep,match,h,3.1,2,dep,3,high,dep,blue
1275,p0ob2fsrsp,de,image-slider-response,lu04rk02,2565,conJudg,76,LF,dep,match,h,3.1,2,dep,3,high,dep,blue
1275,3zzac4tx1p,en,image-slider-response,on03as29,7639,conJudg,28,LF,dep,match,h,3.1,2,dep,3,high,dep,blue
1275,w1htsndwg2,en,image-slider-response,bo05ou27,3521,conJudg,100,LF,dep,match,h,3.1,2,dep,3,high,dep,blue
1275,atap00wwqb,en,image-slider-response,ft08en25,5146,conJudg,100,FL,dep,match,h,3.1,2,dep,3,high,dep,blue
1275,csfpvftfnx,de,image-slider-response,ko05or02,4834,conJudg,100,LF,dep,match,h,3.1,2,dep,3,high,dep,blue
1275,osnv2y9pl1,en,image-slider-response,af05ra11,2937,conJudg,100,LF,dep,match,h,3.1,2,dep,3,high,dep,blue
1275,zt9mew4cym,de,image-slider-response,el06ng23,5676,conJudg,37,LF,dep,match,h,3.1,2,dep,3,high,dep,blue
1275,mn35br66m1,de,image-slider-response,IS05RY26,3568,conJudg,100,FL,dep,match,h,3.1,2,dep,3,high,dep,blue
1275,eyn4ys1wrs,en,image-slider-response,va07il15,5196,conJudg,77,FL,dep,match,h,3.1,2,dep,3,high,dep,blue
1275,a7hqcrbor2,de,image-slider-response,ll08ar27,5839,conJudg,100,FL,dep,match,h,3.1,2,dep,3,high,dep,blue
1275,4xjqd36lab,en,image-slider-response,un08ta23,3872,conJudg,71,LF,dep,match,h,3.1,2,dep,3,high,dep,blue
1275,asumwjv4nj,en,image-slider-response,ne06je04,2222,conJudg,100,LF,dep,match,h,3.1,2,dep,3,high,dep,blue
1275,uf6pxq0fzv,en,image-slider-response,RG06DY30,2293,conJudg,100,FL,dep,match,h,3.1,2,dep,3,high,dep,blue
1275,7jnze5y1xt,de,image-slider-response,er07rg24,2116,conJudg,0,FL,dep,match,h,3.1,2,dep,3,high,dep,blue
1275,ulvf1nlewe,de,image-slider-response,ia04an16,6818,conJudg,30,LF,dep,match,h,3.1,2,dep,3,high,dep,blue
1275,43qjs0ts63,en,image-slider-response,la07as21,3354,conJudg,100,FL,dep,match,h,3.1,2,dep,3,high,dep,blue
1275,490hj15f5l,en,image-slider-response,el05rd15,4640,conJudg,100,LF,dep,match,h,3.1,2,dep,3,high,dep,blue
1275,g6wblx1ehg,en,image-slider-response,aj05er02,4551,conJudg,100,FL,dep,match,h,3.1,2,dep,3,high,dep,blue
1275,9kjfelsstb,en,image-slider-response,er09ch20,2502,conJudg,100,FL,dep,match,h,3.1,2,dep,3,high,dep,blue
1275,hhm1sss4hy,en,image-slider-response,mi06ka18,3706,conJudg,97,FL,dep,match,h,3.1,2,dep,3,high,dep,blue
1275,yzwvuo5jcw,en,image-slider-response,ya08ya01,3734,conJudg,50,LF,dep,match,h,3.1,2,dep,3,high,dep,blue
1275,acgok0jj2j,de,image-slider-response,VO06AS02,1847,conJudg,100,LF,dep,match,h,3.1,2,dep,3,high,dep,blue
1275,z15jvz5weu,en,image-slider-response,gh09er15,2949,conJudg,100,FL,dep,match,h,3.1,2,dep,3,high,dep,blue
1275,zgrkqwru88,en,image-slider-response,as04co18,4005,conJudg,97,LF,dep,match,h,3.1,2,dep,3,high,dep,blue
1275,1x4fxyrk6x,en,image-slider-response,de05nk26,1136,conJudg,0,LF,dep,match,h,3.1,2,dep,3,high,dep,blue
1275,temg3es1km,de,image-slider-response,VA04RG03,2500,conJudg,-29,LF,dep,match,h,3.1,2,dep,3,high,dep,blue
1275,et4cc4zeqy,de,image-slider-response,er08an21,3349,conJudg,100,FL,dep,match,h,3.1,2,dep,3,high,dep,blue
1275,nlsem5jp13,de,image-slider-response,pf06nd18,3849,conJudg,94,LF,dep,match,h,3.1,2,dep,3,high,dep,blue
1275,emk1tsfc0c,en,image-slider-response,dt05as10,3523,conJudg,98,FL,dep,match,h,3.1,2,dep,3,high,dep,blue
1275,dy38rvvnxc,de,image-slider-response,rf07er10,5608,conJudg,21,LF,dep,match,h,3.1,2,dep,3,high,dep,blue
1275,gjq6le86au,en,image-slider-response,NG09US28,5721,conJudg,-42,LF,dep,match,h,3.1,2,dep,3,high,dep,blue
1275,sob32efsmd,en,image-slider-response,qi02ng28,3854,conJudg,-37,FL,dep,match,h,3.1,2,dep,3,high,dep,blue
1275,f64ncrzxu3,en,image-slider-response,NS08US09,3222,conJudg,100,LF,dep,match,h,3.1,2,dep,3,high,dep,blue
1275,8vhxe9t9g0,en,image-slider-response,ke05us31,3252,conJudg,100,FL,dep,match,h,3.1,2,dep,3,high,dep,blue
1275,nav0ha06h4,en,image-slider-response,TZ07ER11,3225,conJudg,55,LF,dep,match,h,3.1,2,dep,3,high,dep,blue
1275,ro2w51u9qx,de,image-slider-response,ER04AV16,2830,conJudg,98,LF,dep,match,h,3.1,2,dep,3,high,dep,blue
1275,kk4adj1drx,de,image-slider-response,en05es25,3216,conJudg,100,LF,dep,match,h,3.1,2,dep,3,high,dep,blue
1275,f00qbt8xgh,en,image-slider-response,NE07SE16,3434,conJudg,100,FL,dep,match,h,3.1,2,dep,3,high,dep,blue
1275,l2tdyj71gq,de,image-slider-response,er04as06,2414,conJudg,100,LF,dep,match,h,3.1,2,dep,3,high,dep,blue
1275,re8dk0velw,en,image-slider-response,ic25an08,5605,conJudg,-58,LF,dep,match,h,3.1,2,dep,3,high,dep,blue
1275,pc9v71lhle,en,image-slider-response,nd05rt12,2875,conJudg,67,LF,dep,match,h,3.1,2,dep,3,high,dep,blue
1275,po0zyzo9vq,de,image-slider-response,we06ed23,2480,conJudg,57,FL,dep,match,h,3.1,2,dep,3,high,dep,blue
1275,75db5dymcw,de,image-slider-response,er05en16,3395,conJudg,-58,FL,dep,match,h,3.1,2,dep,3,high,dep,blue
1275,g8yr0b9yda,en,image-slider-response,er07im06,5166,conJudg,36,LF,dep,match,h,3.1,2,dep,3,high,dep,blue
1275,99v3ayruzp,de,image-slider-response,ki04as07,2193,conJudg,-55,LF,dep,match,h,3.1,2,dep,3,high,dep,blue
1275,0e2jb9zq47,en,image-slider-response,UAJIIN24,5099,conJudg,100,FL,dep,match,h,3.1,2,dep,3,high,dep,blue
1275,yjk8vlfumr,de,image-slider-response,dt06as01,1269,conJudg,0,LF,dep,match,h,3.1,2,dep,3,high,dep,blue
1275,w6nynz57oc,en,image-slider-response,tz03as24,2593,conJudg,100,LF,dep,match,h,3.1,2,dep,3,high,dep,blue
1275,wmv7c0r6c5,en,image-slider-response,va04ik29,5182,conJudg,100,FL,dep,match,h,3.1,2,dep,3,high,dep,blue
1275,bhjyudy7kq,de,image-slider-response,IC06IR09,3199,conJudg,-34,FL,dep,match,h,3.1,2,dep,3,high,dep,blue
1275,7ksbngduvy,en,image-slider-response,ng09ei12,3159,conJudg,100,FL,dep,match,h,3.1,2,dep,3,high,dep,blue
1275,9hgljjcs6a,de,image-slider-response,ER06RD19,5023,conJudg,56,FL,dep,match,h,3.1,2,dep,3,high,dep,blue
1275,zm0cozjsh6,en,image-slider-response,al05rt16,2949,conJudg,100,FL,dep,match,h,3.1,2,dep,3,high,dep,blue
1275,f0xfptzqrg,de,image-slider-response,ay05em02,1545,conJudg,0,LF,dep,match,h,3.1,2,dep,3,high,dep,blue
1275,et8whud6pz,en,image-slider-response,er07el13,2233,conJudg,100,LF,dep,match,h,3.1,2,dep,3,high,dep,blue
1275,xtld2mlddm,de,image-slider-response,ek05an20,4860,conJudg,-61,LF,dep,match,h,3.1,2,dep,3,high,dep,blue
1275,40757xtlgp,en,image-slider-response,va05er24,2361,conJudg,100,FL,dep,match,h,3.1,2,dep,3,high,dep,blue
1275,g0qt0dz9h6,en,image-slider-response,LD05ND12,2587,conJudg,100,FL,dep,match,h,3.1,2,dep,3,high,dep,blue
1275,0ypu8hv44k,de,image-slider-response,en06oi05,3079,conJudg,72,LF,dep,match,h,3.1,2,dep,3,high,dep,blue
1275,tbo3kx7lyg,de,image-slider-response,ke06ng04,7607,conJudg,42,FL,dep,match,h,3.1,2,dep,3,high,dep,blue
1275,g4m3kbu4rq,en,image-slider-response,ER04LF09,3335,conJudg,100,LF,dep,match,h,3.1,2,dep,3,high,dep,blue
1325,khlkyd4sl5,en,image-slider-response,en04az24,1951,conJudg,-60,FL,dep,match,l,3.2,3,dep,3,low,dep,red
1325,0e2jb9zq47,en,image-slider-response,UAJIIN24,5401,conJudg,36,FL,dep,match,l,3.2,3,dep,3,low,dep,red
1325,p0ob2fsrsp,de,image-slider-response,lu04rk02,2478,conJudg,15,LF,dep,match,l,3.2,3,dep,3,low,dep,red
1325,3yxnw7xt1g,de,image-slider-response,cz06an18,4207,conJudg,-80,FL,dep,match,l,3.2,3,dep,3,low,dep,red
1325,c7w24j9nfq,de,image-slider-response,ck05ng18,3142,conJudg,-100,LF,dep,match,l,3.2,3,dep,3,low,dep,red
1325,et8whud6pz,en,image-slider-response,er07el13,2517,conJudg,54,LF,dep,match,l,3.2,3,dep,3,low,dep,red
1325,asumwjv4nj,en,image-slider-response,ne06je04,2200,conJudg,0,LF,dep,match,l,3.2,3,dep,3,low,dep,red
1325,hhm1sss4hy,en,image-slider-response,mi06ka18,2407,conJudg,55,FL,dep,match,l,3.2,3,dep,3,low,dep,red
1325,mn35br66m1,de,image-slider-response,IS05RY26,3355,conJudg,-100,FL,dep,match,l,3.2,3,dep,3,low,dep,red
1325,bhjyudy7kq,de,image-slider-response,IC06IR09,3177,conJudg,53,FL,dep,match,l,3.2,3,dep,3,low,dep,red
1325,f0xfptzqrg,de,image-slider-response,ay05em02,3256,conJudg,56,LF,dep,match,l,3.2,3,dep,3,low,dep,red
1325,22elk0nh1m,de,image-slider-response,er08rd25,2992,conJudg,-100,LF,dep,match,l,3.2,3,dep,3,low,dep,red
1325,ptl3djnzo5,de,image-slider-response,el06nd29,NA,conJudg,NA,FL,dep,match,l,3.2,3,dep,3,low,dep,red
1325,5jpxbwcfh4,de,image-slider-response,el06as26,2534,conJudg,-100,FL,dep,match,l,3.2,3,dep,3,low,dep,red
1325,wg3u6jr0nh,en,image-slider-response,ic07ir25,5558,conJudg,-2,LF,dep,match,l,3.2,3,dep,3,low,dep,red
1325,3zzac4tx1p,en,image-slider-response,on03as29,3097,conJudg,32,LF,dep,match,l,3.2,3,dep,3,low,dep,red
1325,1nbemfkd3a,de,image-slider-response,KE05KO08,6142,conJudg,58,FL,dep,match,l,3.2,3,dep,3,low,dep,red
1325,408x5p8cy7,en,image-slider-response,va08ar03,2219,conJudg,100,LF,dep,match,l,3.2,3,dep,3,low,dep,red
1325,7jnze5y1xt,de,image-slider-response,er07rg24,1899,conJudg,62,FL,dep,match,l,3.2,3,dep,3,low,dep,red
1325,nlsem5jp13,de,image-slider-response,pf06nd18,NA,conJudg,NA,LF,dep,match,l,3.2,3,dep,3,low,dep,red
1325,9dovdyxkak,de,image-slider-response,er09us26,3383,conJudg,-100,LF,dep,match,l,3.2,3,dep,3,low,dep,red
1325,ulvf1nlewe,de,image-slider-response,ia04an16,3566,conJudg,100,LF,dep,match,l,3.2,3,dep,3,low,dep,red
1325,atap00wwqb,en,image-slider-response,ft08en25,4019,conJudg,100,FL,dep,match,l,3.2,3,dep,3,low,dep,red
1325,kbwv2blq88,de,image-slider-response,el09rd31,1454,conJudg,0,LF,dep,match,l,3.2,3,dep,3,low,dep,red
1325,dt4f26xnjv,en,image-slider-response,ER04LF09,3212,conJudg,-100,FL,dep,match,l,3.2,3,dep,3,low,dep,red
1325,7ksbngduvy,en,image-slider-response,ng09ei12,2562,conJudg,100,FL,dep,match,l,3.2,3,dep,3,low,dep,red
1325,ltyqe11amm,de,image-slider-response,er05in25,5983,conJudg,64,FL,dep,match,l,3.2,3,dep,3,low,dep,red
1325,f64ncrzxu3,en,image-slider-response,NS08US09,3064,conJudg,-100,LF,dep,match,l,3.2,3,dep,3,low,dep,red
1325,csfpvftfnx,de,image-slider-response,ko05or02,6204,conJudg,30,LF,dep,match,l,3.2,3,dep,3,low,dep,red
1325,l2tdyj71gq,de,image-slider-response,er04as06,3144,conJudg,100,LF,dep,match,l,3.2,3,dep,3,low,dep,red
1325,zt9mew4cym,de,image-slider-response,el06ng23,2866,conJudg,-74,LF,dep,match,l,3.2,3,dep,3,low,dep,red
1325,kk4adj1drx,de,image-slider-response,en05es25,3788,conJudg,-100,LF,dep,match,l,3.2,3,dep,3,low,dep,red
1325,nbzeelogn1,en,image-slider-response,AL05AR15,3212,conJudg,0,FL,dep,match,l,3.2,3,dep,3,low,dep,red
1325,1x4fxyrk6x,en,image-slider-response,de05nk26,1312,conJudg,0,LF,dep,match,l,3.2,3,dep,3,low,dep,red
1325,dqehnfb6j7,en,image-slider-response,er08em17,2284,conJudg,0,FL,dep,match,l,3.2,3,dep,3,low,dep,red
1325,w1htsndwg2,en,image-slider-response,bo05ou27,2961,conJudg,0,LF,dep,match,l,3.2,3,dep,3,low,dep,red
1325,zm0cozjsh6,en,image-slider-response,al05rt16,3891,conJudg,30,FL,dep,match,l,3.2,3,dep,3,low,dep,red
1325,5baebfz1ea,en,image-slider-response,Ya05an03,3332,conJudg,100,FL,dep,match,l,3.2,3,dep,3,low,dep,red
1325,8vhxe9t9g0,en,image-slider-response,ke05us31,4201,conJudg,60,FL,dep,match,l,3.2,3,dep,3,low,dep,red
1325,w6nynz57oc,en,image-slider-response,tz03as24,3012,conJudg,-100,LF,dep,match,l,3.2,3,dep,3,low,dep,red
1325,owwgbas786,en,image-slider-response,ke09im08,4481,conJudg,53,FL,dep,match,l,3.2,3,dep,3,low,dep,red
1325,19l91w0hqd,en,image-slider-response,NE07SE16,3547,conJudg,-83,FL,dep,match,l,3.2,3,dep,3,low,dep,red
1325,re8dk0velw,en,image-slider-response,ic25an08,5256,conJudg,77,LF,dep,match,l,3.2,3,dep,3,low,dep,red
1325,2z8ekchs9g,en,image-slider-response,rt08ed02,2307,conJudg,100,FL,dep,match,l,3.2,3,dep,3,low,dep,red
1325,pc9v71lhle,en,image-slider-response,nd05rt12,2845,conJudg,-94,LF,dep,match,l,3.2,3,dep,3,low,dep,red
1325,sob32efsmd,en,image-slider-response,qi02ng28,2284,conJudg,-14,FL,dep,match,l,3.2,3,dep,3,low,dep,red
1325,temg3es1km,de,image-slider-response,VA04RG03,2400,conJudg,38,LF,dep,match,l,3.2,3,dep,3,low,dep,red
1325,zgrkqwru88,en,image-slider-response,as04co18,5530,conJudg,-100,LF,dep,match,l,3.2,3,dep,3,low,dep,red
1325,ty0rq2vzkd,en,image-slider-response,eh06in06,2659,conJudg,100,LF,dep,match,l,3.2,3,dep,3,low,dep,red
1325,99v3ayruzp,de,image-slider-response,ki04as07,2144,conJudg,-76,LF,dep,match,l,3.2,3,dep,3,low,dep,red
1325,9zuef86ced,de,image-slider-response,rz06as26,2769,conJudg,-100,FL,dep,match,l,3.2,3,dep,3,low,dep,red
1325,g8yr0b9yda,en,image-slider-response,er07im06,4653,conJudg,-21,LF,dep,match,l,3.2,3,dep,3,low,dep,red
1325,yjk8vlfumr,de,image-slider-response,dt06as01,2473,conJudg,40,LF,dep,match,l,3.2,3,dep,3,low,dep,red
1325,4xjqd36lab,en,image-slider-response,un08ta23,2823,conJudg,0,LF,dep,match,l,3.2,3,dep,3,low,dep,red
1325,7jmcv9rt87,en,image-slider-response,nd05ff22,2385,conJudg,-83,FL,dep,match,l,3.2,3,dep,3,low,dep,red
1325,acgok0jj2j,de,image-slider-response,VO06AS02,2043,conJudg,37,LF,dep,match,l,3.2,3,dep,3,low,dep,red
1325,yzwvuo5jcw,en,image-slider-response,ya08ya01,5655,conJudg,45,LF,dep,match,l,3.2,3,dep,3,low,dep,red
1325,f00qbt8xgh,en,image-slider-response,NE07SE16,3391,conJudg,-89,FL,dep,match,l,3.2,3,dep,3,low,dep,red
1325,9hgljjcs6a,de,image-slider-response,ER06RD19,5780,conJudg,-100,FL,dep,match,l,3.2,3,dep,3,low,dep,red
1325,s48cjlol2y,de,image-slider-response,er04rt18,3196,conJudg,-93,FL,dep,match,l,3.2,3,dep,3,low,dep,red
1325,et4cc4zeqy,de,image-slider-response,er08an21,3950,conJudg,-19,FL,dep,match,l,3.2,3,dep,3,low,dep,red
1325,ro2w51u9qx,de,image-slider-response,ER04AV16,2869,conJudg,-52,LF,dep,match,l,3.2,3,dep,3,low,dep,red
1325,490hj15f5l,en,image-slider-response,el05rd15,4155,conJudg,-55,LF,dep,match,l,3.2,3,dep,3,low,dep,red
1325,75e8k8531m,en,image-slider-response,tz05yu04,2798,conJudg,0,FL,dep,match,l,3.2,3,dep,3,low,dep,red
1325,cdnsgh8l6s,de,image-slider-response,RL05OR28,3637,conJudg,31,FL,dep,match,l,3.2,3,dep,3,low,dep,red
1325,43qjs0ts63,en,image-slider-response,la07as21,3396,conJudg,-100,FL,dep,match,l,3.2,3,dep,3,low,dep,red
1325,wrmngomh1f,de,image-slider-response,at08ed04,3040,conJudg,-100,LF,dep,match,l,3.2,3,dep,3,low,dep,red
1325,u9vce3hluj,de,image-slider-response,ne05ar22,5140,conJudg,68,LF,dep,match,l,3.2,3,dep,3,low,dep,red
1325,z15jvz5weu,en,image-slider-response,gh09er15,7784,conJudg,-100,FL,dep,match,l,3.2,3,dep,3,low,dep,red
1325,emk1tsfc0c,en,image-slider-response,dt05as10,4432,conJudg,-97,FL,dep,match,l,3.2,3,dep,3,low,dep,red
1325,40757xtlgp,en,image-slider-response,va05er24,2531,conJudg,-100,FL,dep,match,l,3.2,3,dep,3,low,dep,red
1325,fnul5v7u0c,en,image-slider-response,ng06rd26,3292,conJudg,48,LF,dep,match,l,3.2,3,dep,3,low,dep,red
1325,7acm8wjh3r,en,image-slider-response,na09ay17,3677,conJudg,-100,LF,dep,match,l,3.2,3,dep,3,low,dep,red
1325,xtld2mlddm,de,image-slider-response,ek05an20,3023,conJudg,-100,LF,dep,match,l,3.2,3,dep,3,low,dep,red
1325,9kjfelsstb,en,image-slider-response,er09ch20,3699,conJudg,0,FL,dep,match,l,3.2,3,dep,3,low,dep,red
1325,eyn4ys1wrs,en,image-slider-response,va07il15,6337,conJudg,72,FL,dep,match,l,3.2,3,dep,3,low,dep,red
1325,kpfcu6m48v,en,image-slider-response,in07er09,4138,conJudg,19,FL,dep,match,l,3.2,3,dep,3,low,dep,red
1325,zq7k8hkxsq,de,image-slider-response,fa05ea13,4955,conJudg,63,FL,dep,match,l,3.2,3,dep,3,low,dep,red
1325,tbo3kx7lyg,de,image-slider-response,ke06ng04,3461,conJudg,54,FL,dep,match,l,3.2,3,dep,3,low,dep,red
1325,uf6pxq0fzv,en,image-slider-response,RG06DY30,4507,conJudg,100,FL,dep,match,l,3.2,3,dep,3,low,dep,red
1325,td2t8o9pe4,de,image-slider-response,HL06IN19,7103,conJudg,-78,FL,dep,match,l,3.2,3,dep,3,low,dep,red
1325,wuvcv75zvq,de,image-slider-response,VA04RD11,5431,conJudg,-25,FL,dep,match,l,3.2,3,dep,3,low,dep,red
1325,g0qt0dz9h6,en,image-slider-response,LD05ND12,5024,conJudg,-24,FL,dep,match,l,3.2,3,dep,3,low,dep,red
1325,gjq6le86au,en,image-slider-response,NG09US28,3742,conJudg,47,LF,dep,match,l,3.2,3,dep,3,low,dep,red
1325,7908vbmsu0,en,image-slider-response,en19ao08,3404,conJudg,-100,LF,dep,match,l,3.2,3,dep,3,low,dep,red
1325,0ypu8hv44k,de,image-slider-response,en06oi05,2457,conJudg,-100,LF,dep,match,l,3.2,3,dep,3,low,dep,red
1325,mj8qhhm23d,de,image-slider-response,va08im28,3170,conJudg,0,FL,dep,match,l,3.2,3,dep,3,low,dep,red
1325,plssjv82xb,de,image-slider-response,Fr.11:45,NA,conJudg,NA,LF,dep,match,l,3.2,3,dep,3,low,dep,red
1325,dy38rvvnxc,de,image-slider-response,rf07er10,7062,conJudg,57,LF,dep,match,l,3.2,3,dep,3,low,dep,red
1325,nav0ha06h4,en,image-slider-response,TZ07ER11,3642,conJudg,-48,LF,dep,match,l,3.2,3,dep,3,low,dep,red
1325,g6wblx1ehg,en,image-slider-response,aj05er02,3899,conJudg,100,FL,dep,match,l,3.2,3,dep,3,low,dep,red
1325,forzsbtguz,en,image-slider-response,ng06an28,3259,conJudg,-100,LF,dep,match,l,3.2,3,dep,3,low,dep,red
1325,po0zyzo9vq,de,image-slider-response,we06ed23,4839,conJudg,-19,FL,dep,match,l,3.2,3,dep,3,low,dep,red
1325,osnv2y9pl1,en,image-slider-response,af05ra11,3109,conJudg,1,LF,dep,match,l,3.2,3,dep,3,low,dep,red
1325,75db5dymcw,de,image-slider-response,er05en16,3178,conJudg,-75,FL,dep,match,l,3.2,3,dep,3,low,dep,red
1325,7xgb6axxfk,de,image-slider-response,rf07as06,3442,conJudg,-79,FL,dep,match,l,3.2,3,dep,3,low,dep,red
1325,a7hqcrbor2,de,image-slider-response,ll08ar27,3928,conJudg,64,FL,dep,match,l,3.2,3,dep,3,low,dep,red
1325,g4m3kbu4rq,en,image-slider-response,ER04LF09,3015,conJudg,100,LF,dep,match,l,3.2,3,dep,3,low,dep,red
1325,wmv7c0r6c5,en,image-slider-response,va04ik29,4063,conJudg,100,FL,dep,match,l,3.2,3,dep,3,low,dep,red
1375,9zuef86ced,de,image-slider-response,rz06as26,2735,conJudg,100,FL,dep,match,h,3.1,3,dep,3,high,dep,blue
1375,0ypu8hv44k,de,image-slider-response,en06oi05,2585,conJudg,53,LF,dep,match,h,3.1,3,dep,3,high,dep,blue
1375,5baebfz1ea,en,image-slider-response,Ya05an03,2342,conJudg,100,FL,dep,match,h,3.1,3,dep,3,high,dep,blue
1375,et8whud6pz,en,image-slider-response,er07el13,2487,conJudg,100,LF,dep,match,h,3.1,3,dep,3,high,dep,blue
1375,eyn4ys1wrs,en,image-slider-response,va07il15,2517,conJudg,75,FL,dep,match,h,3.1,3,dep,3,high,dep,blue
1375,wmv7c0r6c5,en,image-slider-response,va04ik29,5279,conJudg,100,FL,dep,match,h,3.1,3,dep,3,high,dep,blue
1375,9hgljjcs6a,de,image-slider-response,ER06RD19,3719,conJudg,66,FL,dep,match,h,3.1,3,dep,3,high,dep,blue
1375,u9vce3hluj,de,image-slider-response,ne05ar22,2347,conJudg,64,LF,dep,match,h,3.1,3,dep,3,high,dep,blue
1375,3zzac4tx1p,en,image-slider-response,on03as29,3170,conJudg,17,LF,dep,match,h,3.1,3,dep,3,high,dep,blue
1375,g0qt0dz9h6,en,image-slider-response,LD05ND12,2080,conJudg,100,FL,dep,match,h,3.1,3,dep,3,high,dep,blue
1375,pc9v71lhle,en,image-slider-response,nd05rt12,3137,conJudg,81,LF,dep,match,h,3.1,3,dep,3,high,dep,blue
1375,cdnsgh8l6s,de,image-slider-response,RL05OR28,4576,conJudg,100,FL,dep,match,h,3.1,3,dep,3,high,dep,blue
1375,emk1tsfc0c,en,image-slider-response,dt05as10,4562,conJudg,96,FL,dep,match,h,3.1,3,dep,3,high,dep,blue
1375,ty0rq2vzkd,en,image-slider-response,eh06in06,2903,conJudg,-100,LF,dep,match,h,3.1,3,dep,3,high,dep,blue
1375,zt9mew4cym,de,image-slider-response,el06ng23,6729,conJudg,61,LF,dep,match,h,3.1,3,dep,3,high,dep,blue
1375,po0zyzo9vq,de,image-slider-response,we06ed23,3141,conJudg,44,FL,dep,match,h,3.1,3,dep,3,high,dep,blue
1375,0e2jb9zq47,en,image-slider-response,UAJIIN24,5034,conJudg,28,FL,dep,match,h,3.1,3,dep,3,high,dep,blue
1375,g6wblx1ehg,en,image-slider-response,aj05er02,3318,conJudg,100,FL,dep,match,h,3.1,3,dep,3,high,dep,blue
1375,dy38rvvnxc,de,image-slider-response,rf07er10,4605,conJudg,72,LF,dep,match,h,3.1,3,dep,3,high,dep,blue
1375,zq7k8hkxsq,de,image-slider-response,fa05ea13,2658,conJudg,100,FL,dep,match,h,3.1,3,dep,3,high,dep,blue
1375,td2t8o9pe4,de,image-slider-response,HL06IN19,5478,conJudg,16,FL,dep,match,h,3.1,3,dep,3,high,dep,blue
1375,c7w24j9nfq,de,image-slider-response,ck05ng18,2025,conJudg,100,LF,dep,match,h,3.1,3,dep,3,high,dep,blue
1375,7jnze5y1xt,de,image-slider-response,er07rg24,1688,conJudg,-80,FL,dep,match,h,3.1,3,dep,3,high,dep,blue
1375,yzwvuo5jcw,en,image-slider-response,ya08ya01,3203,conJudg,47,LF,dep,match,h,3.1,3,dep,3,high,dep,blue
1375,ptl3djnzo5,de,image-slider-response,el06nd29,2549,conJudg,-34,FL,dep,match,h,3.1,3,dep,3,high,dep,blue
1375,ro2w51u9qx,de,image-slider-response,ER04AV16,3058,conJudg,100,LF,dep,match,h,3.1,3,dep,3,high,dep,blue
1375,et4cc4zeqy,de,image-slider-response,er08an21,3840,conJudg,100,FL,dep,match,h,3.1,3,dep,3,high,dep,blue
1375,hhm1sss4hy,en,image-slider-response,mi06ka18,3543,conJudg,95,FL,dep,match,h,3.1,3,dep,3,high,dep,blue
1375,f00qbt8xgh,en,image-slider-response,NE07SE16,3011,conJudg,100,FL,dep,match,h,3.1,3,dep,3,high,dep,blue
1375,uf6pxq0fzv,en,image-slider-response,RG06DY30,1821,conJudg,100,FL,dep,match,h,3.1,3,dep,3,high,dep,blue
1375,1nbemfkd3a,de,image-slider-response,KE05KO08,5220,conJudg,-61,FL,dep,match,h,3.1,3,dep,3,high,dep,blue
1375,7xgb6axxfk,de,image-slider-response,rf07as06,2339,conJudg,89,FL,dep,match,h,3.1,3,dep,3,high,dep,blue
1375,w1htsndwg2,en,image-slider-response,bo05ou27,3849,conJudg,100,LF,dep,match,h,3.1,3,dep,3,high,dep,blue
1375,yjk8vlfumr,de,image-slider-response,dt06as01,1978,conJudg,0,LF,dep,match,h,3.1,3,dep,3,high,dep,blue
1375,40757xtlgp,en,image-slider-response,va05er24,2569,conJudg,100,FL,dep,match,h,3.1,3,dep,3,high,dep,blue
1375,19l91w0hqd,en,image-slider-response,NE07SE16,4391,conJudg,86,FL,dep,match,h,3.1,3,dep,3,high,dep,blue
1375,fnul5v7u0c,en,image-slider-response,ng06rd26,4603,conJudg,-20,LF,dep,match,h,3.1,3,dep,3,high,dep,blue
1375,nbzeelogn1,en,image-slider-response,AL05AR15,2311,conJudg,52,FL,dep,match,h,3.1,3,dep,3,high,dep,blue
1375,75e8k8531m,en,image-slider-response,tz05yu04,2354,conJudg,100,FL,dep,match,h,3.1,3,dep,3,high,dep,blue
1375,4xjqd36lab,en,image-slider-response,un08ta23,4030,conJudg,40,LF,dep,match,h,3.1,3,dep,3,high,dep,blue
1375,408x5p8cy7,en,image-slider-response,va08ar03,6203,conJudg,-59,LF,dep,match,h,3.1,3,dep,3,high,dep,blue
1375,75db5dymcw,de,image-slider-response,er05en16,4667,conJudg,65,FL,dep,match,h,3.1,3,dep,3,high,dep,blue
1375,f0xfptzqrg,de,image-slider-response,ay05em02,4055,conJudg,-44,LF,dep,match,h,3.1,3,dep,3,high,dep,blue
1375,w6nynz57oc,en,image-slider-response,tz03as24,3163,conJudg,100,LF,dep,match,h,3.1,3,dep,3,high,dep,blue
1375,9dovdyxkak,de,image-slider-response,er09us26,2759,conJudg,100,LF,dep,match,h,3.1,3,dep,3,high,dep,blue
1375,kbwv2blq88,de,image-slider-response,el09rd31,1204,conJudg,0,LF,dep,match,h,3.1,3,dep,3,high,dep,blue
1375,99v3ayruzp,de,image-slider-response,ki04as07,2178,conJudg,32,LF,dep,match,h,3.1,3,dep,3,high,dep,blue
1375,csfpvftfnx,de,image-slider-response,ko05or02,5468,conJudg,100,LF,dep,match,h,3.1,3,dep,3,high,dep,blue
1375,dt4f26xnjv,en,image-slider-response,ER04LF09,2785,conJudg,100,FL,dep,match,h,3.1,3,dep,3,high,dep,blue
1375,khlkyd4sl5,en,image-slider-response,en04az24,5396,conJudg,73,FL,dep,match,h,3.1,3,dep,3,high,dep,blue
1375,bhjyudy7kq,de,image-slider-response,IC06IR09,3404,conJudg,-21,FL,dep,match,h,3.1,3,dep,3,high,dep,blue
1375,g4m3kbu4rq,en,image-slider-response,ER04LF09,3121,conJudg,100,LF,dep,match,h,3.1,3,dep,3,high,dep,blue
1375,gjq6le86au,en,image-slider-response,NG09US28,3254,conJudg,41,LF,dep,match,h,3.1,3,dep,3,high,dep,blue
1375,7jmcv9rt87,en,image-slider-response,nd05ff22,2372,conJudg,100,FL,dep,match,h,3.1,3,dep,3,high,dep,blue
1375,f64ncrzxu3,en,image-slider-response,NS08US09,2926,conJudg,100,LF,dep,match,h,3.1,3,dep,3,high,dep,blue
1375,l2tdyj71gq,de,image-slider-response,er04as06,4096,conJudg,100,LF,dep,match,h,3.1,3,dep,3,high,dep,blue
1375,2z8ekchs9g,en,image-slider-response,rt08ed02,3833,conJudg,81,FL,dep,match,h,3.1,3,dep,3,high,dep,blue
1375,5jpxbwcfh4,de,image-slider-response,el06as26,3778,conJudg,-43,FL,dep,match,h,3.1,3,dep,3,high,dep,blue
1375,wg3u6jr0nh,en,image-slider-response,ic07ir25,NA,conJudg,NA,LF,dep,match,h,3.1,3,dep,3,high,dep,blue
1375,osnv2y9pl1,en,image-slider-response,af05ra11,5205,conJudg,50,LF,dep,match,h,3.1,3,dep,3,high,dep,blue
1375,7908vbmsu0,en,image-slider-response,en19ao08,2522,conJudg,100,LF,dep,match,h,3.1,3,dep,3,high,dep,blue
1375,p0ob2fsrsp,de,image-slider-response,lu04rk02,2797,conJudg,100,LF,dep,match,h,3.1,3,dep,3,high,dep,blue
1375,a7hqcrbor2,de,image-slider-response,ll08ar27,2698,conJudg,100,FL,dep,match,h,3.1,3,dep,3,high,dep,blue
1375,ltyqe11amm,de,image-slider-response,er05in25,3681,conJudg,77,FL,dep,match,h,3.1,3,dep,3,high,dep,blue
1375,zgrkqwru88,en,image-slider-response,as04co18,3337,conJudg,100,LF,dep,match,h,3.1,3,dep,3,high,dep,blue
1375,kk4adj1drx,de,image-slider-response,en05es25,3112,conJudg,100,LF,dep,match,h,3.1,3,dep,3,high,dep,blue
1375,490hj15f5l,en,image-slider-response,el05rd15,2757,conJudg,100,LF,dep,match,h,3.1,3,dep,3,high,dep,blue
1375,3yxnw7xt1g,de,image-slider-response,cz06an18,3025,conJudg,-74,FL,dep,match,h,3.1,3,dep,3,high,dep,blue
1375,zm0cozjsh6,en,image-slider-response,al05rt16,2049,conJudg,100,FL,dep,match,h,3.1,3,dep,3,high,dep,blue
1375,re8dk0velw,en,image-slider-response,ic25an08,5059,conJudg,56,LF,dep,match,h,3.1,3,dep,3,high,dep,blue
1375,plssjv82xb,de,image-slider-response,Fr.11:45,NA,conJudg,NA,LF,dep,match,h,3.1,3,dep,3,high,dep,blue
1375,wrmngomh1f,de,image-slider-response,at08ed04,3602,conJudg,100,LF,dep,match,h,3.1,3,dep,3,high,dep,blue
1375,kpfcu6m48v,en,image-slider-response,in07er09,3466,conJudg,100,FL,dep,match,h,3.1,3,dep,3,high,dep,blue
1375,mj8qhhm23d,de,image-slider-response,va08im28,2190,conJudg,100,FL,dep,match,h,3.1,3,dep,3,high,dep,blue
1375,sob32efsmd,en,image-slider-response,qi02ng28,2375,conJudg,75,FL,dep,match,h,3.1,3,dep,3,high,dep,blue
1375,asumwjv4nj,en,image-slider-response,ne06je04,2137,conJudg,100,LF,dep,match,h,3.1,3,dep,3,high,dep,blue
1375,7acm8wjh3r,en,image-slider-response,na09ay17,2321,conJudg,51,LF,dep,match,h,3.1,3,dep,3,high,dep,blue
1375,wuvcv75zvq,de,image-slider-response,VA04RD11,5144,conJudg,95,FL,dep,match,h,3.1,3,dep,3,high,dep,blue
1375,temg3es1km,de,image-slider-response,VA04RG03,2200,conJudg,-59,LF,dep,match,h,3.1,3,dep,3,high,dep,blue
1375,dqehnfb6j7,en,image-slider-response,er08em17,1903,conJudg,100,FL,dep,match,h,3.1,3,dep,3,high,dep,blue
1375,z15jvz5weu,en,image-slider-response,gh09er15,4682,conJudg,39,FL,dep,match,h,3.1,3,dep,3,high,dep,blue
1375,mn35br66m1,de,image-slider-response,IS05RY26,4359,conJudg,100,FL,dep,match,h,3.1,3,dep,3,high,dep,blue
1375,xtld2mlddm,de,image-slider-response,ek05an20,3247,conJudg,-100,LF,dep,match,h,3.1,3,dep,3,high,dep,blue
1375,owwgbas786,en,image-slider-response,ke09im08,1766,conJudg,100,FL,dep,match,h,3.1,3,dep,3,high,dep,blue
1375,nav0ha06h4,en,image-slider-response,TZ07ER11,3146,conJudg,-57,LF,dep,match,h,3.1,3,dep,3,high,dep,blue
1375,s48cjlol2y,de,image-slider-response,er04rt18,5431,conJudg,90,FL,dep,match,h,3.1,3,dep,3,high,dep,blue
1375,acgok0jj2j,de,image-slider-response,VO06AS02,2358,conJudg,100,LF,dep,match,h,3.1,3,dep,3,high,dep,blue
1375,forzsbtguz,en,image-slider-response,ng06an28,2216,conJudg,100,LF,dep,match,h,3.1,3,dep,3,high,dep,blue
1375,g8yr0b9yda,en,image-slider-response,er07im06,4787,conJudg,83,LF,dep,match,h,3.1,3,dep,3,high,dep,blue
1375,1x4fxyrk6x,en,image-slider-response,de05nk26,1928,conJudg,0,LF,dep,match,h,3.1,3,dep,3,high,dep,blue
1375,atap00wwqb,en,image-slider-response,ft08en25,3509,conJudg,100,FL,dep,match,h,3.1,3,dep,3,high,dep,blue
1375,9kjfelsstb,en,image-slider-response,er09ch20,2104,conJudg,100,FL,dep,match,h,3.1,3,dep,3,high,dep,blue
1375,43qjs0ts63,en,image-slider-response,la07as21,4086,conJudg,-100,FL,dep,match,h,3.1,3,dep,3,high,dep,blue
1375,7ksbngduvy,en,image-slider-response,ng09ei12,2540,conJudg,100,FL,dep,match,h,3.1,3,dep,3,high,dep,blue
1375,8vhxe9t9g0,en,image-slider-response,ke05us31,4753,conJudg,100,FL,dep,match,h,3.1,3,dep,3,high,dep,blue
1375,nlsem5jp13,de,image-slider-response,pf06nd18,3915,conJudg,75,LF,dep,match,h,3.1,3,dep,3,high,dep,blue
1375,ulvf1nlewe,de,image-slider-response,ia04an16,5642,conJudg,22,LF,dep,match,h,3.1,3,dep,3,high,dep,blue
1375,tbo3kx7lyg,de,image-slider-response,ke06ng04,3372,conJudg,57,FL,dep,match,h,3.1,3,dep,3,high,dep,blue
1375,22elk0nh1m,de,image-slider-response,er08rd25,3017,conJudg,100,LF,dep,match,h,3.1,3,dep,3,high,dep,blue
1425,yjk8vlfumr,de,image-slider-response,dt06as01,2808,conJudg,44,LF,dep,match,l,3.2,4,dep,3,low,dep,red
1425,7acm8wjh3r,en,image-slider-response,na09ay17,2341,conJudg,-62,LF,dep,match,l,3.2,4,dep,3,low,dep,red
1425,mn35br66m1,de,image-slider-response,IS05RY26,3382,conJudg,-100,FL,dep,match,l,3.2,4,dep,3,low,dep,red
1425,cdnsgh8l6s,de,image-slider-response,RL05OR28,2588,conJudg,26,FL,dep,match,l,3.2,4,dep,3,low,dep,red
1425,bhjyudy7kq,de,image-slider-response,IC06IR09,2454,conJudg,-50,FL,dep,match,l,3.2,4,dep,3,low,dep,red
1425,ulvf1nlewe,de,image-slider-response,ia04an16,NA,conJudg,NA,LF,dep,match,l,3.2,4,dep,3,low,dep,red
1425,khlkyd4sl5,en,image-slider-response,en04az24,1891,conJudg,0,FL,dep,match,l,3.2,4,dep,3,low,dep,red
1425,g6wblx1ehg,en,image-slider-response,aj05er02,3764,conJudg,100,FL,dep,match,l,3.2,4,dep,3,low,dep,red
1425,acgok0jj2j,de,image-slider-response,VO06AS02,3071,conJudg,0,LF,dep,match,l,3.2,4,dep,3,low,dep,red
1425,osnv2y9pl1,en,image-slider-response,af05ra11,3150,conJudg,100,LF,dep,match,l,3.2,4,dep,3,low,dep,red
1425,td2t8o9pe4,de,image-slider-response,HL06IN19,7142,conJudg,-100,FL,dep,match,l,3.2,4,dep,3,low,dep,red
1425,7jmcv9rt87,en,image-slider-response,nd05ff22,5232,conJudg,-15,FL,dep,match,l,3.2,4,dep,3,low,dep,red
1425,zgrkqwru88,en,image-slider-response,as04co18,3966,conJudg,-100,LF,dep,match,l,3.2,4,dep,3,low,dep,red
1425,dy38rvvnxc,de,image-slider-response,rf07er10,4643,conJudg,56,LF,dep,match,l,3.2,4,dep,3,low,dep,red
1425,0e2jb9zq47,en,image-slider-response,UAJIIN24,4678,conJudg,9,FL,dep,match,l,3.2,4,dep,3,low,dep,red
1425,wg3u6jr0nh,en,image-slider-response,ic07ir25,3173,conJudg,-27,LF,dep,match,l,3.2,4,dep,3,low,dep,red
1425,3zzac4tx1p,en,image-slider-response,on03as29,3480,conJudg,34,LF,dep,match,l,3.2,4,dep,3,low,dep,red
1425,kk4adj1drx,de,image-slider-response,en05es25,3097,conJudg,-100,LF,dep,match,l,3.2,4,dep,3,low,dep,red
1425,0ypu8hv44k,de,image-slider-response,en06oi05,2897,conJudg,-100,LF,dep,match,l,3.2,4,dep,3,low,dep,red
1425,1x4fxyrk6x,en,image-slider-response,de05nk26,808,conJudg,0,LF,dep,match,l,3.2,4,dep,3,low,dep,red
1425,tbo3kx7lyg,de,image-slider-response,ke06ng04,4105,conJudg,35,FL,dep,match,l,3.2,4,dep,3,low,dep,red
1425,75db5dymcw,de,image-slider-response,er05en16,2614,conJudg,-64,FL,dep,match,l,3.2,4,dep,3,low,dep,red
1425,3yxnw7xt1g,de,image-slider-response,cz06an18,5010,conJudg,-76,FL,dep,match,l,3.2,4,dep,3,low,dep,red
1425,7ksbngduvy,en,image-slider-response,ng09ei12,5915,conJudg,97,FL,dep,match,l,3.2,4,dep,3,low,dep,red
1425,gjq6le86au,en,image-slider-response,NG09US28,3639,conJudg,26,LF,dep,match,l,3.2,4,dep,3,low,dep,red
1425,dt4f26xnjv,en,image-slider-response,ER04LF09,1734,conJudg,0,FL,dep,match,l,3.2,4,dep,3,low,dep,red
1425,g0qt0dz9h6,en,image-slider-response,LD05ND12,3301,conJudg,-17,FL,dep,match,l,3.2,4,dep,3,low,dep,red
1425,19l91w0hqd,en,image-slider-response,NE07SE16,3320,conJudg,-99,FL,dep,match,l,3.2,4,dep,3,low,dep,red
1425,atap00wwqb,en,image-slider-response,ft08en25,5131,conJudg,100,FL,dep,match,l,3.2,4,dep,3,low,dep,red
1425,csfpvftfnx,de,image-slider-response,ko05or02,NA,conJudg,NA,LF,dep,match,l,3.2,4,dep,3,low,dep,red
1425,zt9mew4cym,de,image-slider-response,el06ng23,4279,conJudg,-52,LF,dep,match,l,3.2,4,dep,3,low,dep,red
1425,4xjqd36lab,en,image-slider-response,un08ta23,3465,conJudg,0,LF,dep,match,l,3.2,4,dep,3,low,dep,red
