fribbleID subjID learning task label rt resp trialType trialIndex acc Experiment.Version category frequency cueID bodyShape
10125 1459001 FL contingencyJudgement tob 2288 53 audio-slider-response 598 0 15 1 25 eeee barrel
10125 1459706 FL contingencyJudgement tob 2641 42 audio-slider-response 578 0 15 1 25 eeee barrel
10125 1431956 LF contingencyJudgement tob 3013 -55 audio-slider-response 597 0 14 1 25 eeee barrel
10125 1459701 LF contingencyJudgement bim 2537 54 audio-slider-response 601 0 15 1 25 eeee barrel
10125 1431979 FL contingencyJudgement bim 4899 47 audio-slider-response 582 0 14 1 25 eeee barrel
10125 1431953 FL contingencyJudgement tob 4052 100 audio-slider-response 616 0 14 1 25 eeee barrel
10125 1459043 LF contingencyJudgement dep 2411 -100 audio-slider-response 599 1 15 1 25 eeee barrel
10125 1431948 LF contingencyJudgement bim 2531 -100 audio-slider-response 615 0 14 1 25 eeee barrel
10125 1431981 LF contingencyJudgement tob 3720 -80 audio-slider-response 623 0 14 1 25 eeee barrel
10125 1459015 LF contingencyJudgement dep 3262 100 audio-slider-response 601 1 15 1 25 eeee barrel
10175 1431957 FL contingencyJudgement bim 2316 -77 audio-slider-response 596 0 14 1 75 aaaa jar
10175 1431968 LF contingencyJudgement tob 2209 -100 audio-slider-response 607 0 14 1 75 aaaa jar
10175 1431944 FL contingencyJudgement dep 2781 10 audio-slider-response 598 1 14 1 75 aaaa jar
10175 1432009 FL contingencyJudgement bim 2322 -100 audio-slider-response 616 0 14 1 75 aaaa jar
10175 1431984 FL contingencyJudgement bim 2438 -100 audio-slider-response 620 0 14 1 75 aaaa jar
10175 1458992 FL contingencyJudgement dep 2392 -27 audio-slider-response 624 1 15 1 75 aaaa jar
10175 1459767 FL contingencyJudgement bim 1779 -100 audio-slider-response 618 0 15 1 75 aaaa jar
10175 1459036 LF contingencyJudgement tob 3459 -100 audio-slider-response 619 0 15 1 75 aaaa jar
10175 1422470 LF contingencyJudgement tob 2968 84 audio-slider-response 627 0 14 1 75 aaaa jar
10175 1431959 LF contingencyJudgement dep 2341 100 audio-slider-response 609 1 14 1 75 aaaa jar
10225 1431978 FL contingencyJudgement bim 2310 -58 audio-slider-response 602 0 14 1 25 ffff barrel
10225 1459013 FL contingencyJudgement bim 2592 -28 audio-slider-response 596 0 15 1 25 ffff barrel
10225 1414945 FL contingencyJudgement bim 3344 13 audio-slider-response 620 0 14 1 25 ffff barrel
10225 1422678 LF contingencyJudgement bim 3605 -42 audio-slider-response 587 0 14 1 25 ffff barrel
10225 1431949 FL contingencyJudgement dep 2560 100 audio-slider-response 594 1 14 1 25 ffff barrel
10225 1431961 FL contingencyJudgement dep 4267 -96 audio-slider-response 578 1 14 1 25 ffff barrel
10225 1431981 LF contingencyJudgement tob 2619 -46 audio-slider-response 593 0 14 1 25 ffff barrel
10225 1432007 LF contingencyJudgement tob 1219 -99 audio-slider-response 609 0 14 1 25 ffff barrel
10225 1414937 FL contingencyJudgement dep 2309 27 audio-slider-response 604 1 14 1 25 ffff barrel
10225 1432301 LF contingencyJudgement bim 2645 -9 audio-slider-response 611 0 14 1 25 ffff barrel
10225 1431998 LF contingencyJudgement tob 3381 16 audio-slider-response 603 0 14 1 25 ffff barrel
10225 1415040 FL contingencyJudgement tob 2299 -100 audio-slider-response 616 0 14 1 25 ffff barrel
10225 1459001 FL contingencyJudgement tob 2189 27 audio-slider-response 612 0 15 1 25 ffff barrel
10225 1431970 LF contingencyJudgement tob 1570 -100 audio-slider-response 621 0 14 1 25 ffff barrel
10225 1459697 FL contingencyJudgement dep 4992 100 audio-slider-response 618 1 15 1 25 ffff barrel
10225 1431965 FL contingencyJudgement bim 4101 37 audio-slider-response 604 0 14 1 25 ffff barrel
10225 1422470 LF contingencyJudgement tob 3141 91 audio-slider-response 591 0 14 1 25 ffff barrel
10225 1458992 FL contingencyJudgement dep 3040 9 audio-slider-response 606 1 15 1 25 ffff barrel
10225 1431972 FL contingencyJudgement tob 2554 2 audio-slider-response 612 0 14 1 25 ffff barrel
10225 1431953 FL contingencyJudgement tob 2026 100 audio-slider-response 602 0 14 1 25 ffff barrel
10225 1420573 LF contingencyJudgement dep 2647 22 audio-slider-response 597 1 14 1 25 ffff barrel
10275 1431953 FL contingencyJudgement tob 3884 -29 audio-slider-response 598 0 14 1 75 abbb jar
10275 1458996 LF contingencyJudgement dep 3460 100 audio-slider-response 583 1 15 1 75 abbb jar
10275 1459702 FL contingencyJudgement bim 1179 -13 audio-slider-response 606 0 15 1 75 abbb jar
10275 1422473 LF contingencyJudgement dep 3080 54 audio-slider-response 619 1 14 1 75 abbb jar
10275 1422472 FL contingencyJudgement dep 4128 18 audio-slider-response 610 1 14 1 75 abbb jar
10275 1420622 FL contingencyJudgement tob 2541 -100 audio-slider-response 612 0 14 1 75 abbb jar
10275 1431969 FL contingencyJudgement tob 4509 -100 audio-slider-response 616 0 14 1 75 abbb jar
10275 1420163 FL contingencyJudgement dep 2501 -64 audio-slider-response 618 1 14 1 75 abbb jar
10275 1459052 FL contingencyJudgement tob 3021 -53 audio-slider-response 598 0 15 1 75 abbb jar
10275 1431992 FL contingencyJudgement tob 3301 -100 audio-slider-response 584 0 14 1 75 abbb jar
10275 1431965 FL contingencyJudgement bim 2699 -100 audio-slider-response 590 0 14 1 75 abbb jar
10275 1431963 LF contingencyJudgement dep 3152 72 audio-slider-response 621 1 14 1 75 abbb jar
10325 1459701 LF contingencyJudgement bim 4696 49 audio-slider-response 581 0 15 1 25 efgf barrel
10325 1420573 LF contingencyJudgement dep 2821 100 audio-slider-response 615 1 14 1 25 efgf barrel
10325 1420163 FL contingencyJudgement dep 1952 -41 audio-slider-response 612 1 14 1 25 efgf barrel
10325 1432007 LF contingencyJudgement tob 1851 -100 audio-slider-response 607 0 14 1 25 efgf barrel
10325 1431956 LF contingencyJudgement tob 2165 -40 audio-slider-response 607 0 14 1 25 efgf barrel
10325 1420165 FL contingencyJudgement tob 2549 49 audio-slider-response 610 0 14 1 25 efgf barrel
10325 1459001 FL contingencyJudgement tob 2579 42 audio-slider-response 580 0 15 1 25 efgf barrel
10325 1431972 FL contingencyJudgement tob 2543 -39 audio-slider-response 582 0 14 1 25 efgf barrel
10325 1420577 LF contingencyJudgement dep 4189 29 audio-slider-response 607 1 14 1 25 efgf barrel
10325 1431942 LF contingencyJudgement tob 4219 75 audio-slider-response 585 0 14 1 25 efgf barrel
10325 1431989 LF contingencyJudgement bim 3499 -47 audio-slider-response 623 0 14 1 25 efgf barrel
10325 1459052 FL contingencyJudgement tob 2040 -27 audio-slider-response 622 0 15 1 25 efgf barrel
10325 1458998 LF contingencyJudgement dep 2740 -53 audio-slider-response 617 1 15 1 25 efgf barrel
10325 1459706 FL contingencyJudgement tob 2270 13 audio-slider-response 594 0 15 1 25 efgf barrel
10375 1431972 FL contingencyJudgement tob 4830 67 audio-slider-response 578 0 14 1 75 aaac jar
10375 1431992 FL contingencyJudgement tob 2731 -100 audio-slider-response 602 0 14 1 75 aaac jar
10375 1422715 LF contingencyJudgement dep 3669 100 audio-slider-response 605 1 14 1 75 aaac jar
10375 1422679 FL contingencyJudgement tob 2554 -100 audio-slider-response 604 0 14 1 75 aaac jar
10375 1420622 FL contingencyJudgement tob 2349 -100 audio-slider-response 602 0 14 1 75 aaac jar
10375 1432030 LF contingencyJudgement dep 2869 100 audio-slider-response 585 1 14 1 75 aaac jar
10375 1459003 FL contingencyJudgement tob 3899 -5 audio-slider-response 590 0 15 1 75 aaac jar
10375 1459036 LF contingencyJudgement tob 4149 -100 audio-slider-response 581 0 15 1 75 aaac jar
10375 1459064 FL contingencyJudgement dep 2640 26 audio-slider-response 592 1 15 1 75 aaac jar
10375 1459767 FL contingencyJudgement bim 2221 -100 audio-slider-response 598 0 15 1 75 aaac jar
10375 1459052 FL contingencyJudgement tob 3051 -43 audio-slider-response 592 0 15 1 75 aaac jar
10425 1432011 FL contingencyJudgement dep 2304 78 audio-slider-response 618 1 14 1 25 fgfg barrel
10425 1432007 LF contingencyJudgement tob 2171 100 audio-slider-response 621 0 14 1 25 fgfg barrel
10425 1432009 FL contingencyJudgement bim 2345 -100 audio-slider-response 620 0 14 1 25 fgfg barrel
10425 1459047 FL contingencyJudgement bim 3111 -55 audio-slider-response 604 0 15 1 25 fgfg barrel
10425 1422472 FL contingencyJudgement dep 3147 3 audio-slider-response 612 1 14 1 25 fgfg barrel
10425 1432301 LF contingencyJudgement bim 2699 -43 audio-slider-response 617 0 14 1 25 fgfg barrel
10425 1414933 LF contingencyJudgement dep 2824 100 audio-slider-response 621 1 14 1 25 fgfg barrel
10425 1431970 LF contingencyJudgement tob 1422 100 audio-slider-response 607 0 14 1 25 fgfg barrel
10425 1458992 FL contingencyJudgement dep 3360 29 audio-slider-response 588 1 15 1 25 fgfg barrel
10425 1422679 FL contingencyJudgement tob 3692 100 audio-slider-response 620 0 14 1 25 fgfg barrel
10425 1431978 FL contingencyJudgement bim 2990 -57 audio-slider-response 604 0 14 1 25 fgfg barrel
10425 1420573 LF contingencyJudgement dep 2426 57 audio-slider-response 627 1 14 1 25 fgfg barrel
10425 1422463 FL contingencyJudgement bim 4516 -58 audio-slider-response 600 0 14 1 25 fgfg barrel
10425 1459003 FL contingencyJudgement tob 3400 1 audio-slider-response 586 0 15 1 25 fgfg barrel
10425 1422466 FL contingencyJudgement bim 1811 29 audio-slider-response 600 0 14 1 25 fgfg barrel
10425 1422677 FL contingencyJudgement bim 1878 -9 audio-slider-response 610 0 14 1 25 fgfg barrel
10425 1458998 LF contingencyJudgement dep 2299 -40 audio-slider-response 611 1 15 1 25 fgfg barrel
10425 1431948 LF contingencyJudgement bim 2499 -100 audio-slider-response 623 0 14 1 25 fgfg barrel
10425 1422477 FL contingencyJudgement bim 2541 67 audio-slider-response 592 0 14 1 25 fgfg barrel
10475 1459029 FL contingencyJudgement tob 2415 -100 audio-slider-response 582 0 15 1 75 bcbc jar
10475 1431954 LF contingencyJudgement bim 1852 -48 audio-slider-response 605 0 14 1 75 bcbc jar
10475 1422679 FL contingencyJudgement tob 2502 -100 audio-slider-response 622 0 14 1 75 bcbc jar
10475 1432323 LF contingencyJudgement tob 2331 -74 audio-slider-response 607 0 14 1 75 bcbc jar
10475 1422476 LF contingencyJudgement dep 2000 100 audio-slider-response 583 1 14 1 75 bcbc jar
10475 1431942 LF contingencyJudgement tob 3301 -100 audio-slider-response 607 0 14 1 75 bcbc jar
10475 1431978 FL contingencyJudgement bim 4029 91 audio-slider-response 624 0 14 1 75 bcbc jar
10475 1431952 LF contingencyJudgement bim 2027 8 audio-slider-response 615 0 14 1 75 bcbc jar
10475 1459708 FL contingencyJudgement bim 2932 -100 audio-slider-response 586 0 15 1 75 bcbc jar
10475 1422463 FL contingencyJudgement bim 3106 -100 audio-slider-response 608 0 14 1 75 bcbc jar
10475 1458997 LF contingencyJudgement dep 3619 -61 audio-slider-response 609 1 15 1 75 bcbc jar
10475 1431968 LF contingencyJudgement tob 2162 -45 audio-slider-response 611 0 14 1 75 bcbc jar
10475 1459697 FL contingencyJudgement dep 3692 -100 audio-slider-response 616 1 15 1 75 bcbc jar
10525 1414937 FL contingencyJudgement dep 2669 22 audio-slider-response 586 1 14 1 25 hfee barrel
10525 1422476 LF contingencyJudgement dep 2448 25 audio-slider-response 585 1 14 1 25 hfee barrel
10525 1459024 FL contingencyJudgement dep 2606 47 audio-slider-response 594 1 15 1 25 hfee barrel
10525 1420180 FL contingencyJudgement dep 3692 -76 audio-slider-response 592 1 14 1 25 hfee barrel
10525 1431999 LF contingencyJudgement dep 3280 -23 audio-slider-response 605 1 14 1 25 hfee barrel
10525 1422470 LF contingencyJudgement tob 2859 76 audio-slider-response 623 0 14 1 25 hfee barrel
10525 1431998 LF contingencyJudgement tob 4531 -66 audio-slider-response 613 0 14 1 25 hfee barrel
10525 1459048 FL contingencyJudgement tob 2377 -12 audio-slider-response 618 0 15 1 25 hfee barrel
10525 1431949 FL contingencyJudgement dep 3211 100 audio-slider-response 602 1 14 1 25 hfee barrel
10525 1422678 LF contingencyJudgement bim 2972 -71 audio-slider-response 621 0 14 1 25 hfee barrel
10525 1459025 LF contingencyJudgement tob 2400 -31 audio-slider-response 619 0 15 1 25 hfee barrel
10525 1432301 LF contingencyJudgement bim 2635 -51 audio-slider-response 619 0 14 1 25 hfee barrel
10575 1422716 FL contingencyJudgement bim 3509 -100 audio-slider-response 610 0 14 1 75 baac jar
10575 1431963 LF contingencyJudgement dep 1980 57 audio-slider-response 605 1 14 1 75 baac jar
10575 1459699 LF contingencyJudgement dep 2612 76 audio-slider-response 625 1 15 1 75 baac jar
10575 1459025 LF contingencyJudgement tob 1691 24 audio-slider-response 599 0 15 1 75 baac jar
10575 1420573 LF contingencyJudgement dep 1890 24 audio-slider-response 591 1 14 1 75 baac jar
10575 1458998 LF contingencyJudgement dep 2844 100 audio-slider-response 605 1 15 1 75 baac jar
10575 1432003 LF contingencyJudgement dep 2981 90 audio-slider-response 623 1 14 1 75 baac jar
10575 1459700 LF contingencyJudgement tob 3021 -100 audio-slider-response 613 0 15 1 75 baac jar
10575 1431970 LF contingencyJudgement tob 888 100 audio-slider-response 623 0 14 1 75 baac jar
10575 1414957 FL contingencyJudgement tob 2865 -65 audio-slider-response 620 0 14 1 75 baac jar
10625 1459009 FL contingencyJudgement bim 3531 -69 audio-slider-response 586 0 15 1 25 hffe barrel
10625 1422681 LF contingencyJudgement tob 3796 44 audio-slider-response 603 0 14 1 25 hffe barrel
10625 1431981 LF contingencyJudgement tob 2379 -78 audio-slider-response 615 0 14 1 25 hffe barrel
10625 1431968 LF contingencyJudgement tob 2572 -16 audio-slider-response 609 0 14 1 25 hffe barrel
10625 1432009 FL contingencyJudgement bim 2612 -100 audio-slider-response 602 0 14 1 25 hffe barrel
10625 1420577 LF contingencyJudgement dep 3880 18 audio-slider-response 587 1 14 1 25 hffe barrel
10625 1431944 FL contingencyJudgement dep 3069 -14 audio-slider-response 592 1 14 1 25 hffe barrel
10625 1458998 LF contingencyJudgement dep 2920 -35 audio-slider-response 599 1 15 1 25 hffe barrel
10625 1431974 FL contingencyJudgement bim 3286 -61 audio-slider-response 580 0 14 1 25 hffe barrel
10625 1459067 LF contingencyJudgement bim 4208 22 audio-slider-response 595 0 15 1 25 hffe barrel
10625 1459043 LF contingencyJudgement dep 2291 -100 audio-slider-response 609 1 15 1 25 hffe barrel
10625 1459001 FL contingencyJudgement tob 2301 -28 audio-slider-response 596 0 15 1 25 hffe barrel
10625 1459708 FL contingencyJudgement bim 2188 -69 audio-slider-response 612 0 15 1 25 hffe barrel
10625 1432030 LF contingencyJudgement dep 4461 -100 audio-slider-response 595 1 14 1 25 hffe barrel
10625 1432003 LF contingencyJudgement dep 4611 -17 audio-slider-response 601 1 14 1 25 hffe barrel
10625 1459701 LF contingencyJudgement bim 3814 57 audio-slider-response 591 0 15 1 25 hffe barrel
10675 1459696 FL contingencyJudgement dep 2699 -45 audio-slider-response 587 1 15 1 75 cbcd jar
10675 1431998 LF contingencyJudgement tob 4360 -100 audio-slider-response 581 0 14 1 75 cbcd jar
10675 1459700 LF contingencyJudgement tob 3039 -100 audio-slider-response 625 0 15 1 75 cbcd jar
10675 1431974 FL contingencyJudgement bim 2136 -38 audio-slider-response 610 0 14 1 75 cbcd jar
10675 1420180 FL contingencyJudgement dep 3553 80 audio-slider-response 580 1 14 1 75 cbcd jar
10675 1415040 FL contingencyJudgement tob 2800 -100 audio-slider-response 578 0 14 1 75 cbcd jar
10675 1431984 FL contingencyJudgement bim 2537 -100 audio-slider-response 614 0 14 1 75 cbcd jar
10675 1431969 FL contingencyJudgement tob 2240 -100 audio-slider-response 620 0 14 1 75 cbcd jar
10725 1459702 FL contingencyJudgement bim 1341 -11 audio-slider-response 622 0 15 1 25 heef barrel
10725 1422476 LF contingencyJudgement dep 2181 22 audio-slider-response 621 1 14 1 25 heef barrel
10725 1420580 FL contingencyJudgement tob 2960 -100 audio-slider-response 604 0 14 1 25 heef barrel
10725 1422676 LF contingencyJudgement bim 3221 36 audio-slider-response 599 0 14 1 25 heef barrel
10725 1420165 FL contingencyJudgement tob 2000 28 audio-slider-response 594 0 14 1 25 heef barrel
10725 1431999 LF contingencyJudgement dep 2629 -32 audio-slider-response 623 1 14 1 25 heef barrel
10725 1459048 FL contingencyJudgement tob 1707 -25 audio-slider-response 590 0 15 1 25 heef barrel
10725 1431952 LF contingencyJudgement bim 3531 18 audio-slider-response 581 0 14 1 25 heef barrel
10725 1431959 LF contingencyJudgement dep 4251 -100 audio-slider-response 615 1 14 1 25 heef barrel
10725 1431992 FL contingencyJudgement tob 3240 -100 audio-slider-response 598 0 14 1 25 heef barrel
10725 1422466 FL contingencyJudgement bim 1869 39 audio-slider-response 602 0 14 1 25 heef barrel
10725 1431979 FL contingencyJudgement bim 2840 -100 audio-slider-response 588 0 14 1 25 heef barrel
10725 1459052 FL contingencyJudgement tob 1808 -29 audio-slider-response 616 0 15 1 25 heef barrel
10725 1422681 LF contingencyJudgement tob 2990 35 audio-slider-response 609 0 14 1 25 heef barrel
10725 1432003 LF contingencyJudgement dep 3149 38 audio-slider-response 607 1 14 1 25 heef barrel
10725 1431963 LF contingencyJudgement dep 3820 -39 audio-slider-response 581 1 14 1 25 heef barrel
10775 1420580 FL contingencyJudgement tob 3149 -100 audio-slider-response 602 0 14 1 75 ccbc jar
10775 1431981 LF contingencyJudgement tob 2269 14 audio-slider-response 617 0 14 1 75 ccbc jar
10775 1431956 LF contingencyJudgement tob 2380 -83 audio-slider-response 589 0 14 1 75 ccbc jar
10775 1414937 FL contingencyJudgement dep 2000 100 audio-slider-response 614 1 14 1 75 ccbc jar
10775 1431948 LF contingencyJudgement bim 2541 37 audio-slider-response 609 0 14 1 75 ccbc jar
10775 1422679 FL contingencyJudgement tob 3053 -100 audio-slider-response 588 0 14 1 75 ccbc jar
10775 1420163 FL contingencyJudgement dep 2837 68 audio-slider-response 624 1 14 1 75 ccbc jar
10775 1432009 FL contingencyJudgement bim 2728 -100 audio-slider-response 618 0 14 1 75 ccbc jar
10775 1431974 FL contingencyJudgement bim 3466 27 audio-slider-response 592 0 14 1 75 ccbc jar
10775 1420180 FL contingencyJudgement dep 2322 50 audio-slider-response 604 1 14 1 75 ccbc jar
10825 1458997 LF contingencyJudgement dep 2640 -1 audio-slider-response 619 1 15 1 25 eggg barrel
10825 1431984 FL contingencyJudgement bim 2798 -100 audio-slider-response 592 0 14 1 25 eggg barrel
10825 1422681 LF contingencyJudgement tob 3320 33 audio-slider-response 625 0 14 1 25 eggg barrel
10825 1431946 FL contingencyJudgement dep 3175 -100 audio-slider-response 584 1 14 1 25 eggg barrel
10825 1432030 LF contingencyJudgement dep 2851 -40 audio-slider-response 615 1 14 1 25 eggg barrel
10825 1420204 LF contingencyJudgement bim 4520 -100 audio-slider-response 581 0 14 1 25 eggg barrel
10825 1431952 LF contingencyJudgement bim 2261 4 audio-slider-response 597 0 14 1 25 eggg barrel
10825 1420185 LF contingencyJudgement dep 2640 -100 audio-slider-response 617 1 14 1 25 eggg barrel
10825 1459043 LF contingencyJudgement dep 3699 -100 audio-slider-response 603 1 15 1 25 eggg barrel
10825 1420163 FL contingencyJudgement dep 3264 -81 audio-slider-response 592 1 14 1 25 eggg barrel
10825 1431961 FL contingencyJudgement dep 3535 -99 audio-slider-response 600 1 14 1 25 eggg barrel
10875 1420185 LF contingencyJudgement dep 4440 100 audio-slider-response 595 1 14 1 75 abca jar
10875 1459009 FL contingencyJudgement bim 3339 53 audio-slider-response 584 0 15 1 75 abca jar
10875 1431989 LF contingencyJudgement bim 2128 -69 audio-slider-response 603 0 14 1 75 abca jar
10875 1420165 FL contingencyJudgement tob 2099 34 audio-slider-response 602 0 14 1 75 abca jar
10875 1459003 FL contingencyJudgement tob 3640 -13 audio-slider-response 616 0 15 1 75 abca jar
10875 1432052 FL contingencyJudgement bim 3459 35 audio-slider-response 588 0 14 1 75 abca jar
10875 1459703 FL contingencyJudgement tob 2979 -100 audio-slider-response 594 0 15 1 75 abca jar
10875 1459025 LF contingencyJudgement tob 3381 14 audio-slider-response 581 0 15 1 75 abca jar
10875 1422477 FL contingencyJudgement bim 2680 53 audio-slider-response 612 0 14 1 75 abca jar
10875 1432011 FL contingencyJudgement dep 1712 -59 audio-slider-response 608 1 14 1 75 abca jar
10875 1459708 FL contingencyJudgement bim 2531 -100 audio-slider-response 604 0 15 1 75 abca jar
10875 1431946 FL contingencyJudgement dep 3228 -100 audio-slider-response 590 1 14 1 75 abca jar
10875 1459002 FL contingencyJudgement tob 2821 -71 audio-slider-response 622 0 15 1 75 abca jar
10875 1422472 FL contingencyJudgement dep 3744 14 audio-slider-response 596 1 14 1 75 abca jar
10925 1422465 FL contingencyJudgement bim 3187 -100 audio-slider-response 590 0 14 1 25 fgeg barrel
10925 1459697 FL contingencyJudgement dep 3477 100 audio-slider-response 588 1 15 1 25 fgeg barrel
10925 1459709 LF contingencyJudgement tob 3120 -1 audio-slider-response 609 0 15 1 25 fgeg barrel
10925 1459702 FL contingencyJudgement bim 2611 -35 audio-slider-response 582 0 15 1 25 fgeg barrel
10925 1431944 FL contingencyJudgement dep 2411 -6 audio-slider-response 584 1 14 1 25 fgeg barrel
10925 1422477 FL contingencyJudgement bim 2451 77 audio-slider-response 606 0 14 1 25 fgeg barrel
10925 1459015 LF contingencyJudgement dep 2926 100 audio-slider-response 611 1 15 1 25 fgeg barrel
10925 1459064 FL contingencyJudgement dep 1779 25 audio-slider-response 584 1 15 1 25 fgeg barrel
10925 1422678 LF contingencyJudgement bim 1805 -57 audio-slider-response 623 0 14 1 25 fgeg barrel
10925 1420165 FL contingencyJudgement tob 2240 27 audio-slider-response 592 0 14 1 25 fgeg barrel
10925 1431953 FL contingencyJudgement tob 4882 76 audio-slider-response 578 0 14 1 25 fgeg barrel
10925 1431946 FL contingencyJudgement dep 3082 -99 audio-slider-response 596 1 14 1 25 fgeg barrel
10925 1459013 FL contingencyJudgement bim 2545 -31 audio-slider-response 598 0 15 1 25 fgeg barrel
10925 1431968 LF contingencyJudgement tob 2580 -100 audio-slider-response 593 0 14 1 25 fgeg barrel
10975 1432009 FL contingencyJudgement bim 3135 -100 audio-slider-response 596 0 14 1 75 acbc jar
10975 1432052 FL contingencyJudgement bim 3312 83 audio-slider-response 592 0 14 1 75 acbc jar
10975 1420552 LF contingencyJudgement bim 1859 29 audio-slider-response 611 0 14 1 75 acbc jar
10975 1459052 FL contingencyJudgement tob 2531 -35 audio-slider-response 618 0 15 1 75 acbc jar
10975 1459002 FL contingencyJudgement tob 4510 19 audio-slider-response 598 0 15 1 75 acbc jar
10975 1459701 LF contingencyJudgement bim 2485 -44 audio-slider-response 627 0 15 1 75 acbc jar
11025 1432052 FL contingencyJudgement bim 3061 -79 audio-slider-response 606 0 14 1 25 fgge barrel
11025 1431966 LF contingencyJudgement bim 3731 -26 audio-slider-response 617 0 14 1 25 fgge barrel
11025 1415040 FL contingencyJudgement tob 3029 -97 audio-slider-response 612 0 14 1 25 fgge barrel
11025 1459109 LF contingencyJudgement tob 3800 29 audio-slider-response 603 0 15 1 25 fgge barrel
11025 1458996 LF contingencyJudgement dep 3175 100 audio-slider-response 611 1 15 1 25 fgge barrel
11025 1420552 LF contingencyJudgement bim 1781 -5 audio-slider-response 601 0 14 1 25 fgge barrel
11025 1414945 FL contingencyJudgement bim 4612 -33 audio-slider-response 588 0 14 1 25 fgge barrel
11025 1420204 LF contingencyJudgement bim 3219 -70 audio-slider-response 613 0 14 1 25 fgge barrel
11025 1414933 LF contingencyJudgement dep 2621 100 audio-slider-response 603 1 14 1 25 fgge barrel
11025 1458998 LF contingencyJudgement dep 4812 -8 audio-slider-response 587 1 15 1 25 fgge barrel
11025 1459015 LF contingencyJudgement dep 3500 88 audio-slider-response 589 1 15 1 25 fgge barrel
11025 1420622 FL contingencyJudgement tob 4579 -100 audio-slider-response 578 0 14 1 25 fgge barrel
11025 1459003 FL contingencyJudgement tob 3600 -47 audio-slider-response 582 0 15 1 25 fgge barrel
11025 1459700 LF contingencyJudgement tob 3080 -100 audio-slider-response 611 0 15 1 25 fgge barrel
11025 1422466 FL contingencyJudgement bim 2029 45 audio-slider-response 610 0 14 1 25 fgge barrel
11025 1422467 LF contingencyJudgement bim 4781 -49 audio-slider-response 595 0 14 1 25 fgge barrel
11025 1459002 FL contingencyJudgement tob 3651 44 audio-slider-response 588 0 15 1 25 fgge barrel
11025 1420577 LF contingencyJudgement dep 3429 37 audio-slider-response 605 1 14 1 25 fgge barrel
11025 1459018 FL contingencyJudgement tob 2259 47 audio-slider-response 600 0 15 1 25 fgge barrel
11025 1458997 LF contingencyJudgement dep 2189 -6 audio-slider-response 621 1 15 1 25 fgge barrel
11075 1431944 FL contingencyJudgement dep 2141 -12 audio-slider-response 602 1 14 1 75 aaba jar
11075 1422476 LF contingencyJudgement dep 3579 100 audio-slider-response 581 1 14 1 75 aaba jar
11075 1414957 FL contingencyJudgement tob 2946 -34 audio-slider-response 618 0 14 1 75 aaba jar
11075 1431961 FL contingencyJudgement dep 3117 -77 audio-slider-response 602 1 14 1 75 aaba jar
11075 1459699 LF contingencyJudgement dep 3379 100 audio-slider-response 581 1 15 1 75 aaba jar
11075 1422473 LF contingencyJudgement dep 4461 -54 audio-slider-response 605 1 14 1 75 aaba jar
11075 1415040 FL contingencyJudgement tob 3021 -100 audio-slider-response 608 0 14 1 75 aaba jar
11075 1420169 LF contingencyJudgement bim 2786 -10 audio-slider-response 625 0 14 1 75 aaba jar
11075 1431963 LF contingencyJudgement dep 3315 70 audio-slider-response 623 1 14 1 75 aaba jar
11125 1458992 FL contingencyJudgement dep 2160 -52 audio-slider-response 592 1 15 1 25 gegf barrel
11125 1459700 LF contingencyJudgement tob 2888 -100 audio-slider-response 617 0 15 1 25 gegf barrel
11125 1459009 FL contingencyJudgement bim 3240 -83 audio-slider-response 594 0 15 1 25 gegf barrel
11125 1414933 LF contingencyJudgement dep 2560 100 audio-slider-response 597 1 14 1 25 gegf barrel
11125 1422676 LF contingencyJudgement bim 3760 23 audio-slider-response 611 0 14 1 25 gegf barrel
11125 1431989 LF contingencyJudgement bim 3360 20 audio-slider-response 585 0 14 1 25 gegf barrel
11125 1422679 FL contingencyJudgement tob 2833 -100 audio-slider-response 598 0 14 1 25 gegf barrel
11125 1459047 FL contingencyJudgement bim 4412 -4 audio-slider-response 616 0 15 1 25 gegf barrel
11125 1459007 FL contingencyJudgement bim 2171 -49 audio-slider-response 596 0 15 1 25 gegf barrel
11125 1431952 LF contingencyJudgement bim 2144 2 audio-slider-response 595 0 14 1 25 gegf barrel
11125 1459706 FL contingencyJudgement tob 3422 6 audio-slider-response 602 0 15 1 25 gegf barrel
11125 1459052 FL contingencyJudgement tob 2531 -18 audio-slider-response 600 0 15 1 25 gegf barrel
11125 1431954 LF contingencyJudgement bim 2101 -28 audio-slider-response 583 0 14 1 25 gegf barrel
11125 1431974 FL contingencyJudgement bim 4034 -62 audio-slider-response 578 0 14 1 25 gegf barrel
11125 1431961 FL contingencyJudgement dep 2020 -92 audio-slider-response 608 1 14 1 25 gegf barrel
11125 1422476 LF contingencyJudgement dep 1709 19 audio-slider-response 623 1 14 1 25 gegf barrel
11125 1431957 FL contingencyJudgement bim 3065 -83 audio-slider-response 624 0 14 1 25 gegf barrel
11125 1459702 FL contingencyJudgement bim 1640 -16 audio-slider-response 610 0 15 1 25 gegf barrel
11125 1459025 LF contingencyJudgement tob 1749 22 audio-slider-response 617 0 15 1 25 gegf barrel
11125 1459067 LF contingencyJudgement bim 3299 25 audio-slider-response 597 0 15 1 25 gegf barrel
11125 1431969 FL contingencyJudgement tob 1869 100 audio-slider-response 602 0 14 1 25 gegf barrel
11175 1422715 LF contingencyJudgement dep 3480 100 audio-slider-response 597 1 14 1 75 cabb jar
11175 1420577 LF contingencyJudgement dep 3768 74 audio-slider-response 625 1 14 1 75 cabb jar
11175 1431968 LF contingencyJudgement tob 2499 -100 audio-slider-response 627 0 14 1 75 cabb jar
11175 1422465 FL contingencyJudgement bim 2206 -100 audio-slider-response 610 0 14 1 75 cabb jar
11175 1432301 LF contingencyJudgement bim 2389 -100 audio-slider-response 609 0 14 1 75 cabb jar
11175 1459018 FL contingencyJudgement tob 3120 -56 audio-slider-response 624 0 15 1 75 cabb jar
11175 1431969 FL contingencyJudgement tob 1869 -100 audio-slider-response 604 0 14 1 75 cabb jar
11175 1459043 LF contingencyJudgement dep 3651 50 audio-slider-response 595 1 15 1 75 cabb jar
11175 1431965 FL contingencyJudgement bim 2589 -100 audio-slider-response 594 0 14 1 75 cabb jar
11175 1431974 FL contingencyJudgement bim 3500 68 audio-slider-response 582 0 14 1 75 cabb jar
11225 1431963 LF contingencyJudgement dep 2705 30 audio-slider-response 587 1 14 1 25 geeg barrel
11225 1422463 FL contingencyJudgement bim 2868 -63 audio-slider-response 602 0 14 1 25 geeg barrel
11225 1431999 LF contingencyJudgement dep 2712 -73 audio-slider-response 593 1 14 1 25 geeg barrel
11225 1431957 FL contingencyJudgement bim 2432 -79 audio-slider-response 594 0 14 1 25 geeg barrel
11225 1415040 FL contingencyJudgement tob 3651 -66 audio-slider-response 604 0 14 1 25 geeg barrel
11225 1431970 LF contingencyJudgement tob 3808 -100 audio-slider-response 603 0 14 1 25 geeg barrel
11225 1414933 LF contingencyJudgement dep 2876 100 audio-slider-response 623 1 14 1 25 geeg barrel
11225 1458996 LF contingencyJudgement dep 3216 100 audio-slider-response 619 1 15 1 25 geeg barrel
11225 1458997 LF contingencyJudgement dep 2480 -3 audio-slider-response 617 1 15 1 25 geeg barrel
11225 1431956 LF contingencyJudgement tob 2171 -31 audio-slider-response 605 0 14 1 25 geeg barrel
11225 1420185 LF contingencyJudgement dep 2589 -100 audio-slider-response 601 1 14 1 25 geeg barrel
11225 1422680 LF contingencyJudgement dep 4552 31 audio-slider-response 583 1 14 1 25 geeg barrel
11225 1414945 FL contingencyJudgement bim 3393 -49 audio-slider-response 594 0 14 1 25 geeg barrel
11225 1414957 FL contingencyJudgement tob 2386 100 audio-slider-response 616 0 14 1 25 geeg barrel
11225 1459047 FL contingencyJudgement bim 4267 -100 audio-slider-response 580 0 15 1 25 geeg barrel
11225 1459696 FL contingencyJudgement dep 2920 18 audio-slider-response 569 1 15 1 25 geeg barrel
11275 1459696 FL contingencyJudgement dep 1949 54 audio-slider-response 597 1 15 1 75 cbca jar
11275 1459048 FL contingencyJudgement tob 2104 -54 audio-slider-response 614 0 15 1 75 cbca jar
11275 1459703 FL contingencyJudgement tob 2800 -47 audio-slider-response 596 0 15 1 75 cbca jar
11275 1459702 FL contingencyJudgement bim 1299 -8 audio-slider-response 612 0 15 1 75 cbca jar
11275 1431965 FL contingencyJudgement bim 3120 -100 audio-slider-response 584 0 14 1 75 cbca jar
11275 1431992 FL contingencyJudgement tob 2931 -100 audio-slider-response 618 0 14 1 75 cbca jar
11275 1459047 FL contingencyJudgement bim 3286 -100 audio-slider-response 600 0 15 1 75 cbca jar
11275 1431944 FL contingencyJudgement dep 2760 -10 audio-slider-response 608 1 14 1 75 cbca jar
11275 1420622 FL contingencyJudgement tob 2749 -100 audio-slider-response 592 0 14 1 75 cbca jar
11325 1459036 LF contingencyJudgement tob 3560 -100 audio-slider-response 621 0 15 1 25 gegg barrel
11325 1431981 LF contingencyJudgement tob 2800 -48 audio-slider-response 595 0 14 1 25 gegg barrel
11325 1431978 FL contingencyJudgement bim 3709 -92 audio-slider-response 594 0 14 1 25 gegg barrel
11325 1422477 FL contingencyJudgement bim 2440 57 audio-slider-response 624 0 14 1 25 gegg barrel
11325 1422470 LF contingencyJudgement tob 3349 78 audio-slider-response 617 0 14 1 25 gegg barrel
11325 1432007 LF contingencyJudgement tob 1392 -100 audio-slider-response 601 0 14 1 25 gegg barrel
11325 1420622 FL contingencyJudgement tob 2632 -38 audio-slider-response 608 0 14 1 25 gegg barrel
11325 1459703 FL contingencyJudgement tob 3019 35 audio-slider-response 590 0 15 1 25 gegg barrel
11325 1422472 FL contingencyJudgement dep 3915 2 audio-slider-response 604 1 14 1 25 gegg barrel
11375 1431972 FL contingencyJudgement tob 2264 3 audio-slider-response 618 0 14 1 75 aaca jar
11375 1431948 LF contingencyJudgement bim 2109 23 audio-slider-response 607 0 14 1 75 aaca jar
11375 1459007 FL contingencyJudgement bim 2912 -19 audio-slider-response 604 0 15 1 75 aaca jar
11375 1431970 LF contingencyJudgement tob 3370 3 audio-slider-response 589 0 14 1 75 aaca jar
11375 1459696 FL contingencyJudgement dep 2781 24 audio-slider-response 573 1 15 1 75 aaca jar
11375 1459700 LF contingencyJudgement tob 2862 -100 audio-slider-response 609 0 15 1 75 aaca jar
11375 1422675 FL contingencyJudgement dep 2579 100 audio-slider-response 586 1 14 1 75 aaca jar
11375 1459001 FL contingencyJudgement tob 2149 28 audio-slider-response 614 0 15 1 75 aaca jar
11425 1422477 FL contingencyJudgement bim 2989 64 audio-slider-response 618 0 14 1 25 gege barrel
11425 1459064 FL contingencyJudgement dep 2571 26 audio-slider-response 616 1 15 1 25 gege barrel
11425 1459013 FL contingencyJudgement bim 2882 1 audio-slider-response 584 0 15 1 25 gege barrel
11425 1459046 LF contingencyJudgement tob 2629 10 audio-slider-response 611 0 15 1 25 gege barrel
11425 1420169 LF contingencyJudgement bim 3524 -8 audio-slider-response 621 0 14 1 25 gege barrel
11425 1422676 LF contingencyJudgement bim 2880 44 audio-slider-response 621 0 14 1 25 gege barrel
11425 1459699 LF contingencyJudgement dep 3111 43 audio-slider-response 627 1 15 1 25 gege barrel
11425 1459708 FL contingencyJudgement bim 3233 -70 audio-slider-response 614 0 15 1 25 gege barrel
11425 1459029 FL contingencyJudgement tob 2194 23 audio-slider-response 614 0 15 1 25 gege barrel
11425 1431959 LF contingencyJudgement dep 3429 -100 audio-slider-response 623 1 14 1 25 gege barrel
11425 1431965 FL contingencyJudgement bim 2768 30 audio-slider-response 608 0 14 1 25 gege barrel
11425 1431972 FL contingencyJudgement tob 2670 -39 audio-slider-response 584 0 14 1 25 gege barrel
11425 1457883 LF contingencyJudgement bim 2229 -100 audio-slider-response 607 0 15 1 25 gege barrel
11425 1432052 FL contingencyJudgement bim 4099 97 audio-slider-response 582 0 14 1 25 gege barrel
11475 1420573 LF contingencyJudgement dep 2934 48 audio-slider-response 593 1 14 1 75 acaa jar
11475 1422466 FL contingencyJudgement bim 1779 20 audio-slider-response 586 0 14 1 75 acaa jar
11475 1420577 LF contingencyJudgement dep 3549 67 audio-slider-response 621 1 14 1 75 acaa jar
11475 1422472 FL contingencyJudgement dep 3744 13 audio-slider-response 620 1 14 1 75 acaa jar
11475 1459708 FL contingencyJudgement bim 2641 -100 audio-slider-response 596 0 15 1 75 acaa jar
11475 1422477 FL contingencyJudgement bim 3752 17 audio-slider-response 616 0 14 1 75 acaa jar
11475 1459048 FL contingencyJudgement tob 1190 -14 audio-slider-response 600 0 15 1 75 acaa jar
11475 1432052 FL contingencyJudgement bim 2280 99 audio-slider-response 602 0 14 1 75 acaa jar
11475 1420169 LF contingencyJudgement bim 4435 -13 audio-slider-response 599 0 14 1 75 acaa jar
11475 1431954 LF contingencyJudgement bim 2043 -38 audio-slider-response 615 0 14 1 75 acaa jar
11475 1414933 LF contingencyJudgement dep 2711 100 audio-slider-response 589 1 14 1 75 acaa jar
11475 1459109 LF contingencyJudgement tob 3589 -55 audio-slider-response 623 0 15 1 75 acaa jar
11525 1459036 LF contingencyJudgement tob 3579 -100 audio-slider-response 603 0 15 1 25 eggf barrel
11525 1431963 LF contingencyJudgement dep 2850 27 audio-slider-response 613 1 14 1 25 eggf barrel
11525 1420552 LF contingencyJudgement bim 2029 -59 audio-slider-response 613 0 14 1 25 eggf barrel
11525 1420573 LF contingencyJudgement dep 2482 100 audio-slider-response 617 1 14 1 25 eggf barrel
11525 1431968 LF contingencyJudgement tob 2699 -100 audio-slider-response 599 0 14 1 25 eggf barrel
11525 1432011 FL contingencyJudgement dep 1435 92 audio-slider-response 610 1 14 1 25 eggf barrel
11525 1431952 LF contingencyJudgement bim 2709 3 audio-slider-response 601 0 14 1 25 eggf barrel
11525 1459039 LF contingencyJudgement tob 4153 65 audio-slider-response 623 0 15 1 25 eggf barrel
11525 1431969 FL contingencyJudgement tob 1840 100 audio-slider-response 590 0 14 1 25 eggf barrel
11525 1431984 FL contingencyJudgement bim 1863 -100 audio-slider-response 604 0 14 1 25 eggf barrel
11525 1420577 LF contingencyJudgement dep 4411 11 audio-slider-response 589 1 14 1 25 eggf barrel
11525 1459018 FL contingencyJudgement tob 2301 41 audio-slider-response 616 0 15 1 25 eggf barrel
11525 1459702 FL contingencyJudgement bim 1320 -12 audio-slider-response 602 0 15 1 25 eggf barrel
11525 1422675 FL contingencyJudgement dep 2520 -7 audio-slider-response 592 1 14 1 25 eggf barrel
11525 1459767 FL contingencyJudgement bim 4112 -100 audio-slider-response 588 0 15 1 25 eggf barrel
11525 1414937 FL contingencyJudgement dep 3200 25 audio-slider-response 606 1 14 1 25 eggf barrel
11525 1431961 FL contingencyJudgement dep 2357 -99 audio-slider-response 606 1 14 1 25 eggf barrel
11525 1422679 FL contingencyJudgement tob 2926 -100 audio-slider-response 594 0 14 1 25 eggf barrel
11525 1432323 LF contingencyJudgement tob 1829 49 audio-slider-response 621 0 14 1 25 eggf barrel
11525 1432009 FL contingencyJudgement bim 4690 -100 audio-slider-response 584 0 14 1 25 eggf barrel
11525 1420169 LF contingencyJudgement bim 2699 -9 audio-slider-response 627 0 14 1 25 eggf barrel
11575 1459024 FL contingencyJudgement dep 3344 40 audio-slider-response 618 1 15 1 75 bcac jar
11575 1414957 FL contingencyJudgement tob 3109 -81 audio-slider-response 614 0 14 1 75 bcac jar
11575 1432301 LF contingencyJudgement bim 2432 -100 audio-slider-response 605 0 14 1 75 bcac jar
11575 1431953 FL contingencyJudgement tob 2972 18 audio-slider-response 606 0 14 1 75 bcac jar
11575 1459046 LF contingencyJudgement tob 3920 13 audio-slider-response 615 0 15 1 75 bcac jar
11575 1459036 LF contingencyJudgement tob 3920 -100 audio-slider-response 623 0 15 1 75 bcac jar
11575 1431948 LF contingencyJudgement bim 2200 20 audio-slider-response 591 0 14 1 75 bcac jar
11575 1459018 FL contingencyJudgement tob 2659 -88 audio-slider-response 590 0 15 1 75 bcac jar
11575 1422465 FL contingencyJudgement bim 2810 -57 audio-slider-response 622 0 14 1 75 bcac jar
11575 1422473 LF contingencyJudgement dep 3851 34 audio-slider-response 597 1 14 1 75 bcac jar
11575 1432007 LF contingencyJudgement tob 1320 100 audio-slider-response 605 0 14 1 75 bcac jar
11575 1432323 LF contingencyJudgement tob 2520 -62 audio-slider-response 593 0 14 1 75 bcac jar
11575 1431970 LF contingencyJudgement tob 1530 100 audio-slider-response 597 0 14 1 75 bcac jar
11575 1459706 FL contingencyJudgement tob 2168 -76 audio-slider-response 582 0 15 1 75 bcac jar
11625 1459767 FL contingencyJudgement bim 2179 -100 audio-slider-response 616 0 15 1 25 eeeg barrel
11625 1422680 LF contingencyJudgement dep 2491 17 audio-slider-response 623 1 14 1 25 eeeg barrel
11625 1422466 FL contingencyJudgement bim 1680 38 audio-slider-response 596 0 14 1 25 eeeg barrel
11625 1420204 LF contingencyJudgement bim 4320 -100 audio-slider-response 611 0 14 1 25 eeeg barrel
11625 1458996 LF contingencyJudgement dep 3686 100 audio-slider-response 625 1 15 1 25 eeeg barrel
11625 1420580 FL contingencyJudgement tob 4741 -100 audio-slider-response 580 0 14 1 25 eeeg barrel
11625 1459703 FL contingencyJudgement tob 3168 42 audio-slider-response 582 0 15 1 25 eeeg barrel
11625 1422715 LF contingencyJudgement dep 4160 67 audio-slider-response 591 1 14 1 25 eeeg barrel
11625 1459046 LF contingencyJudgement tob 3291 -20 audio-slider-response 605 0 15 1 25 eeeg barrel
11625 1431957 FL contingencyJudgement bim 2229 -73 audio-slider-response 622 0 14 1 25 eeeg barrel
11625 1420180 FL contingencyJudgement dep 2171 -100 audio-slider-response 610 1 14 1 25 eeeg barrel
11625 1422675 FL contingencyJudgement dep 3749 56 audio-slider-response 588 1 14 1 25 eeeg barrel
11675 1459043 LF contingencyJudgement dep 3120 60 audio-slider-response 597 1 15 1 75 abac jar
11675 1431978 FL contingencyJudgement bim 4435 100 audio-slider-response 578 0 14 1 75 abac jar
11675 1420180 FL contingencyJudgement dep 2363 85 audio-slider-response 586 1 14 1 75 abac jar
11675 1459029 FL contingencyJudgement tob 2659 -100 audio-slider-response 600 0 15 1 75 abac jar
11675 1459025 LF contingencyJudgement tob 2131 8 audio-slider-response 583 0 15 1 75 abac jar
11675 1431998 LF contingencyJudgement tob 3488 -68 audio-slider-response 591 0 14 1 75 abac jar
11675 1422680 LF contingencyJudgement dep 2840 44 audio-slider-response 621 1 14 1 75 abac jar
11675 1431968 LF contingencyJudgement tob 3379 -100 audio-slider-response 589 0 14 1 75 abac jar
11675 1459702 FL contingencyJudgement bim 2960 -18 audio-slider-response 598 0 15 1 75 abac jar
11725 1431949 FL contingencyJudgement dep 2952 100 audio-slider-response 586 1 14 1 25 fegf barrel
11725 1459708 FL contingencyJudgement bim 3425 -73 audio-slider-response 610 0 15 1 25 fegf barrel
11725 1420622 FL contingencyJudgement tob 2520 -100 audio-slider-response 604 0 14 1 25 fegf barrel
11725 1432030 LF contingencyJudgement dep 4491 -100 audio-slider-response 581 1 14 1 25 fegf barrel
11725 1431984 FL contingencyJudgement bim 4493 -100 audio-slider-response 602 0 14 1 25 fegf barrel
11725 1459009 FL contingencyJudgement bim 3688 -100 audio-slider-response 610 0 15 1 25 fegf barrel
11725 1422463 FL contingencyJudgement bim 3001 -100 audio-slider-response 588 0 14 1 25 fegf barrel
11725 1432323 LF contingencyJudgement tob 2331 83 audio-slider-response 585 0 14 1 25 fegf barrel
11725 1431966 LF contingencyJudgement bim 3021 -39 audio-slider-response 591 0 14 1 25 fegf barrel
11725 1431968 LF contingencyJudgement tob 3721 -49 audio-slider-response 591 0 14 1 25 fegf barrel
11725 1459709 LF contingencyJudgement tob 2949 26 audio-slider-response 617 0 15 1 25 fegf barrel
11775 1432323 LF contingencyJudgement tob 2309 -76 audio-slider-response 583 0 14 1 75 aaab jar
11775 1420622 FL contingencyJudgement tob 2840 -100 audio-slider-response 596 0 14 1 75 aaab jar
11775 1459043 LF contingencyJudgement dep 3501 52 audio-slider-response 613 1 15 1 75 aaab jar
11775 1459018 FL contingencyJudgement tob 2381 -88 audio-slider-response 602 0 15 1 75 aaab jar
11775 1422465 FL contingencyJudgement bim 3280 70 audio-slider-response 586 0 14 1 75 aaab jar
11775 1459013 FL contingencyJudgement bim 2296 100 audio-slider-response 624 0 15 1 75 aaab jar
11775 1459052 FL contingencyJudgement tob 3901 -46 audio-slider-response 606 0 15 1 75 aaab jar
11825 1431966 LF contingencyJudgement bim 2771 -32 audio-slider-response 593 0 14 1 25 feeg barrel
11825 1422463 FL contingencyJudgement bim 3675 -100 audio-slider-response 614 0 14 1 25 feeg barrel
11825 1459013 FL contingencyJudgement bim 3059 1 audio-slider-response 586 0 15 1 25 feeg barrel
11825 1459706 FL contingencyJudgement tob 2148 26 audio-slider-response 598 0 15 1 25 feeg barrel
11825 1431965 FL contingencyJudgement bim 3112 9 audio-slider-response 598 0 14 1 25 feeg barrel
11825 1459052 FL contingencyJudgement tob 2589 27 audio-slider-response 590 0 15 1 25 feeg barrel
11825 1459024 FL contingencyJudgement dep 3756 12 audio-slider-response 620 1 15 1 25 feeg barrel
11825 1431979 FL contingencyJudgement bim 3920 -100 audio-slider-response 606 0 14 1 25 feeg barrel
11825 1431992 FL contingencyJudgement tob 2899 -100 audio-slider-response 600 0 14 1 25 feeg barrel
11825 1431974 FL contingencyJudgement bim 4232 -31 audio-slider-response 608 0 14 1 25 feeg barrel
11825 1459064 FL contingencyJudgement dep 3259 30 audio-slider-response 614 1 15 1 25 feeg barrel
11825 1431954 LF contingencyJudgement bim 2078 -22 audio-slider-response 627 0 14 1 25 feeg barrel
11825 1459007 FL contingencyJudgement bim 3059 -63 audio-slider-response 594 0 15 1 25 feeg barrel
11825 1432011 FL contingencyJudgement dep 4421 26 audio-slider-response 578 1 14 1 25 feeg barrel
11875 1420180 FL contingencyJudgement dep 3175 96 audio-slider-response 606 1 14 1 75 baab jar
11875 1420163 FL contingencyJudgement dep 2555 17 audio-slider-response 602 1 14 1 75 baab jar
11875 1420577 LF contingencyJudgement dep 4131 72 audio-slider-response 623 1 14 1 75 baab jar
11875 1459701 LF contingencyJudgement bim 3367 -73 audio-slider-response 585 0 15 1 75 baab jar
11875 1459697 FL contingencyJudgement dep 3733 -100 audio-slider-response 612 1 15 1 75 baab jar
11875 1414937 FL contingencyJudgement dep 2208 100 audio-slider-response 588 1 14 1 75 baab jar
11875 1422681 LF contingencyJudgement tob 2438 -100 audio-slider-response 595 0 14 1 75 baab jar
11875 1422465 FL contingencyJudgement bim 3541 -100 audio-slider-response 594 0 14 1 75 baab jar
11875 1422470 LF contingencyJudgement tob 3979 -78 audio-slider-response 585 0 14 1 75 baab jar
11875 1431984 FL contingencyJudgement bim 3349 -100 audio-slider-response 578 0 14 1 75 baab jar
11875 1458996 LF contingencyJudgement dep 2368 100 audio-slider-response 603 1 15 1 75 baab jar
11925 1459007 FL contingencyJudgement bim 2600 -21 audio-slider-response 606 0 15 1 25 fegg barrel
11925 1459767 FL contingencyJudgement bim 3899 -100 audio-slider-response 594 0 15 1 25 fegg barrel
11925 1459009 FL contingencyJudgement bim 3168 -77 audio-slider-response 596 0 15 1 25 fegg barrel
11925 1459703 FL contingencyJudgement tob 3480 41 audio-slider-response 608 0 15 1 25 fegg barrel
11925 1431998 LF contingencyJudgement tob 4339 -49 audio-slider-response 617 0 14 1 25 fegg barrel
11925 1420185 LF contingencyJudgement dep 2851 -100 audio-slider-response 589 1 14 1 25 fegg barrel
11925 1432052 FL contingencyJudgement bim 3029 -61 audio-slider-response 614 0 14 1 25 fegg barrel
11925 1459067 LF contingencyJudgement bim 3541 23 audio-slider-response 613 0 15 1 25 fegg barrel
11925 1432323 LF contingencyJudgement tob 2411 87 audio-slider-response 587 0 14 1 25 fegg barrel
11925 1459709 LF contingencyJudgement tob 4800 -29 audio-slider-response 581 0 15 1 25 fegg barrel
11925 1431953 FL contingencyJudgement tob 2676 65 audio-slider-response 582 0 14 1 25 fegg barrel
11925 1432009 FL contingencyJudgement bim 2635 -100 audio-slider-response 604 0 14 1 25 fegg barrel
11975 1459706 FL contingencyJudgement tob 2418 -79 audio-slider-response 606 0 15 1 75 caab jar
11975 1422678 LF contingencyJudgement bim 2316 -71 audio-slider-response 625 0 14 1 75 caab jar
11975 1431957 FL contingencyJudgement bim 2339 -90 audio-slider-response 604 0 14 1 75 caab jar
11975 1459047 FL contingencyJudgement bim 3454 -100 audio-slider-response 590 0 15 1 75 caab jar
11975 1459029 FL contingencyJudgement tob 2746 -100 audio-slider-response 580 0 15 1 75 caab jar
11975 1431942 LF contingencyJudgement tob 2280 -100 audio-slider-response 617 0 14 1 75 caab jar
11975 1459002 FL contingencyJudgement tob 4139 -31 audio-slider-response 594 0 15 1 75 caab jar
11975 1431963 LF contingencyJudgement dep 4174 -95 audio-slider-response 593 1 14 1 75 caab jar
11975 1422675 FL contingencyJudgement dep 2272 100 audio-slider-response 602 1 14 1 75 caab jar
11975 1422467 LF contingencyJudgement bim 3240 -46 audio-slider-response 599 0 14 1 75 caab jar
11975 1459700 LF contingencyJudgement tob 3489 -99 audio-slider-response 585 0 15 1 75 caab jar
11975 1422463 FL contingencyJudgement bim 3466 -100 audio-slider-response 592 0 14 1 75 caab jar
11975 1458992 FL contingencyJudgement dep 2360 21 audio-slider-response 620 1 15 1 75 caab jar
11975 1422476 LF contingencyJudgement dep 2640 100 audio-slider-response 619 1 14 1 75 caab jar
12025 1431999 LF contingencyJudgement dep 3320 -19 audio-slider-response 621 1 14 1 25 fege barrel
12025 1420552 LF contingencyJudgement bim 2760 -50 audio-slider-response 595 0 14 1 25 fege barrel
12025 1431989 LF contingencyJudgement bim 3000 33 audio-slider-response 593 0 14 1 25 fege barrel
12025 1420180 FL contingencyJudgement dep 3646 -96 audio-slider-response 594 1 14 1 25 fege barrel
12025 1420165 FL contingencyJudgement tob 4381 32 audio-slider-response 580 0 14 1 25 fege barrel
12025 1422476 LF contingencyJudgement dep 3109 35 audio-slider-response 601 1 14 1 25 fege barrel
12025 1422470 LF contingencyJudgement tob 2688 79 audio-slider-response 609 0 14 1 25 fege barrel
12025 1459029 FL contingencyJudgement tob 3106 21 audio-slider-response 594 0 15 1 25 fege barrel
12025 1422473 LF contingencyJudgement dep 3309 40 audio-slider-response 617 1 14 1 25 fege barrel
12025 1459696 FL contingencyJudgement dep 1691 51 audio-slider-response 601 1 15 1 25 fege barrel
12025 1422465 FL contingencyJudgement bim 2548 76 audio-slider-response 616 0 14 1 25 fege barrel
12025 1431969 FL contingencyJudgement tob 1899 100 audio-slider-response 592 0 14 1 25 fege barrel
12025 1459002 FL contingencyJudgement tob 2566 10 audio-slider-response 592 0 15 1 25 fege barrel
12025 1432003 LF contingencyJudgement dep 3629 33 audio-slider-response 595 1 14 1 25 fege barrel
12075 1458997 LF contingencyJudgement dep 3960 85 audio-slider-response 625 1 15 1 75 ccaa jar
12075 1431999 LF contingencyJudgement dep 2331 68 audio-slider-response 615 1 14 1 75 ccaa jar
12075 1422679 FL contingencyJudgement tob 2566 -100 audio-slider-response 618 0 14 1 75 ccaa jar
12075 1431942 LF contingencyJudgement tob 2291 -100 audio-slider-response 615 0 14 1 75 ccaa jar
12075 1459067 LF contingencyJudgement bim 2840 -54 audio-slider-response 607 0 15 1 75 ccaa jar
12075 1431972 FL contingencyJudgement tob 2990 68 audio-slider-response 580 0 14 1 75 ccaa jar
12075 1422466 FL contingencyJudgement bim 1960 52 audio-slider-response 582 0 14 1 75 ccaa jar
12075 1431949 FL contingencyJudgement dep 3131 100 audio-slider-response 620 1 14 1 75 ccaa jar
12075 1420169 LF contingencyJudgement bim 3390 -14 audio-slider-response 601 0 14 1 75 ccaa jar
12075 1431948 LF contingencyJudgement bim 2941 40 audio-slider-response 583 0 14 1 75 ccaa jar
12075 1422677 FL contingencyJudgement bim 1959 4 audio-slider-response 612 0 14 1 75 ccaa jar
12125 1420622 FL contingencyJudgement tob 4491 -40 audio-slider-response 606 0 14 1 25 egeg barrel
12125 1457883 LF contingencyJudgement bim 2572 -100 audio-slider-response 591 0 15 1 25 egeg barrel
12125 1431954 LF contingencyJudgement bim 3175 37 audio-slider-response 597 0 14 1 25 egeg barrel
12125 1459047 FL contingencyJudgement bim 2804 -44 audio-slider-response 586 0 15 1 25 egeg barrel
12125 1422677 FL contingencyJudgement bim 1910 -16 audio-slider-response 594 0 14 1 25 egeg barrel
12125 1422465 FL contingencyJudgement bim 2624 -60 audio-slider-response 624 0 14 1 25 egeg barrel
12125 1431956 LF contingencyJudgement tob 1718 -52 audio-slider-response 587 0 14 1 25 egeg barrel
12125 1459048 FL contingencyJudgement tob 2844 60 audio-slider-response 608 0 15 1 25 egeg barrel
12125 1459767 FL contingencyJudgement bim 3072 -100 audio-slider-response 590 0 15 1 25 egeg barrel
12125 1420580 FL contingencyJudgement tob 3248 -100 audio-slider-response 592 0 14 1 25 egeg barrel
12125 1459697 FL contingencyJudgement dep 3082 100 audio-slider-response 602 1 15 1 25 egeg barrel
12125 1458992 FL contingencyJudgement dep 2400 9 audio-slider-response 622 1 15 1 25 egeg barrel
12125 1431948 LF contingencyJudgement bim 3309 -100 audio-slider-response 597 0 14 1 25 egeg barrel
12125 1414957 FL contingencyJudgement tob 3048 100 audio-slider-response 586 0 14 1 25 egeg barrel
12125 1422679 FL contingencyJudgement tob 3286 -100 audio-slider-response 592 0 14 1 25 egeg barrel
12125 1422472 FL contingencyJudgement dep 3456 5 audio-slider-response 598 1 14 1 25 egeg barrel
12175 1431999 LF contingencyJudgement dep 2149 69 audio-slider-response 627 1 14 1 75 bcaa jar
12175 1459007 FL contingencyJudgement bim 4312 39 audio-slider-response 578 0 15 1 75 bcaa jar
12175 1459013 FL contingencyJudgement bim 2589 100 audio-slider-response 600 0 15 1 75 bcaa jar
12175 1422677 FL contingencyJudgement bim 3071 12 audio-slider-response 588 0 14 1 75 bcaa jar
12175 1431949 FL contingencyJudgement dep 2371 100 audio-slider-response 596 1 14 1 75 bcaa jar
12175 1422466 FL contingencyJudgement bim 1440 33 audio-slider-response 594 0 14 1 75 bcaa jar
12175 1459046 LF contingencyJudgement tob 3320 -100 audio-slider-response 583 0 15 1 75 bcaa jar
12175 1457883 LF contingencyJudgement bim 2421 -100 audio-slider-response 615 0 15 1 75 bcaa jar
12175 1432030 LF contingencyJudgement dep 2392 100 audio-slider-response 587 1 14 1 75 bcaa jar
12175 1422675 FL contingencyJudgement dep 2160 100 audio-slider-response 594 1 14 1 75 bcaa jar
12175 1431952 LF contingencyJudgement bim 4725 3 audio-slider-response 593 0 14 1 75 bcaa jar
12175 1459048 FL contingencyJudgement tob 1686 -100 audio-slider-response 584 0 15 1 75 bcaa jar
12175 1431956 LF contingencyJudgement tob 2786 -41 audio-slider-response 603 0 14 1 75 bcaa jar
12225 1422681 LF contingencyJudgement tob 4017 62 audio-slider-response 605 0 14 1 25 egfg barrel
12225 1457883 LF contingencyJudgement bim 2438 -100 audio-slider-response 619 0 15 1 25 egfg barrel
12225 1432030 LF contingencyJudgement dep 2531 -15 audio-slider-response 613 1 14 1 25 egfg barrel
12225 1422715 LF contingencyJudgement dep 4320 62 audio-slider-response 627 1 14 1 25 egfg barrel
12225 1414957 FL contingencyJudgement tob 3260 41 audio-slider-response 602 0 14 1 25 egfg barrel
12225 1431992 FL contingencyJudgement tob 2771 -100 audio-slider-response 588 0 14 1 25 egfg barrel
12225 1459699 LF contingencyJudgement dep 3550 8 audio-slider-response 619 1 15 1 25 egfg barrel
12225 1459048 FL contingencyJudgement tob 1207 24 audio-slider-response 588 0 15 1 25 egfg barrel
12225 1420163 FL contingencyJudgement dep 3173 -41 audio-slider-response 610 1 14 1 25 egfg barrel
12225 1431954 LF contingencyJudgement bim 2374 44 audio-slider-response 623 0 14 1 25 egfg barrel
12225 1420180 FL contingencyJudgement dep 2020 -94 audio-slider-response 608 1 14 1 25 egfg barrel
12225 1431963 LF contingencyJudgement dep 2618 64 audio-slider-response 591 1 14 1 25 egfg barrel
12225 1431970 LF contingencyJudgement tob 1338 100 audio-slider-response 627 0 14 1 25 egfg barrel
12275 1420552 LF contingencyJudgement bim 1219 -1 audio-slider-response 617 0 14 1 75 bcca jar
12275 1457883 LF contingencyJudgement bim 2937 -100 audio-slider-response 603 0 15 1 75 bcca jar
12275 1422477 FL contingencyJudgement bim 3360 33 audio-slider-response 608 0 14 1 75 bcca jar
12275 1431952 LF contingencyJudgement bim 2453 5 audio-slider-response 611 0 14 1 75 bcca jar
12275 1459036 LF contingencyJudgement tob 3579 -100 audio-slider-response 609 0 15 1 75 bcca jar
12275 1431989 LF contingencyJudgement bim 3371 -60 audio-slider-response 625 0 14 1 75 bcca jar
12275 1422676 LF contingencyJudgement bim 4328 87 audio-slider-response 583 0 14 1 75 bcca jar
12275 1431972 FL contingencyJudgement tob 2363 5 audio-slider-response 614 0 14 1 75 bcca jar
12275 1459703 FL contingencyJudgement tob 2949 -100 audio-slider-response 602 0 15 1 75 bcca jar
12275 1431944 FL contingencyJudgement dep 1779 -5 audio-slider-response 604 1 14 1 75 bcca jar
12275 1432011 FL contingencyJudgement dep 1888 84 audio-slider-response 614 1 14 1 75 bcca jar
12275 1432003 LF contingencyJudgement dep 4171 83 audio-slider-response 603 1 14 1 75 bcca jar
12275 1422716 FL contingencyJudgement bim 3701 -100 audio-slider-response 594 0 14 1 75 bcca jar
12275 1459009 FL contingencyJudgement bim 3851 -93 audio-slider-response 578 0 15 1 75 bcca jar
12275 1459024 FL contingencyJudgement dep 2694 26 audio-slider-response 610 1 15 1 75 bcca jar
12325 1459025 LF contingencyJudgement tob 1448 -25 audio-slider-response 627 0 15 1 25 gfff barrel
12325 1459696 FL contingencyJudgement dep 2499 34 audio-slider-response 605 1 15 1 25 gfff barrel
12325 1414957 FL contingencyJudgement tob 2458 100 audio-slider-response 610 0 14 1 25 gfff barrel
12325 1459701 LF contingencyJudgement bim 3425 63 audio-slider-response 589 0 15 1 25 gfff barrel
12325 1459007 FL contingencyJudgement bim 2200 -100 audio-slider-response 584 0 15 1 25 gfff barrel
12325 1457883 LF contingencyJudgement bim 2508 -100 audio-slider-response 587 0 15 1 25 gfff barrel
12325 1459002 FL contingencyJudgement tob 2705 12 audio-slider-response 590 0 15 1 25 gfff barrel
12325 1420185 LF contingencyJudgement dep 4021 -100 audio-slider-response 621 1 14 1 25 gfff barrel
12325 1422473 LF contingencyJudgement dep 3469 -74 audio-slider-response 595 1 14 1 25 gfff barrel
12325 1432323 LF contingencyJudgement tob 2269 49 audio-slider-response 601 0 14 1 25 gfff barrel
12325 1422675 FL contingencyJudgement dep 3240 80 audio-slider-response 608 1 14 1 25 gfff barrel
12325 1459700 LF contingencyJudgement tob 2859 -47 audio-slider-response 591 0 15 1 25 gfff barrel
12325 1431944 FL contingencyJudgement dep 1931 -20 audio-slider-response 612 1 14 1 25 gfff barrel
12325 1431979 FL contingencyJudgement bim 4699 59 audio-slider-response 578 0 14 1 25 gfff barrel
12325 1414937 FL contingencyJudgement dep 1960 20 audio-slider-response 592 1 14 1 25 gfff barrel
12375 1459701 LF contingencyJudgement bim 2328 -55 audio-slider-response 611 0 15 1 75 bbbc jar
12375 1431956 LF contingencyJudgement tob 4151 74 audio-slider-response 583 0 14 1 75 bbbc jar
12375 1431979 FL contingencyJudgement bim 3272 -100 audio-slider-response 590 0 14 1 75 bbbc jar
12375 1431966 LF contingencyJudgement bim 3299 -53 audio-slider-response 587 0 14 1 75 bbbc jar
12375 1432007 LF contingencyJudgement tob 1720 -100 audio-slider-response 617 0 14 1 75 bbbc jar
12375 1415040 FL contingencyJudgement tob 4251 -100 audio-slider-response 576 0 14 1 75 bbbc jar
12375 1432011 FL contingencyJudgement dep 1584 70 audio-slider-response 586 1 14 1 75 bbbc jar
12375 1431961 FL contingencyJudgement dep 3495 34 audio-slider-response 588 1 14 1 75 bbbc jar
12375 1420573 LF contingencyJudgement dep 3759 34 audio-slider-response 583 1 14 1 75 bbbc jar
12425 1422716 FL contingencyJudgement bim 4192 -3 audio-slider-response 624 0 14 1 25 effe barrel
12425 1432011 FL contingencyJudgement dep 1808 73 audio-slider-response 596 1 14 1 25 effe barrel
12425 1422678 LF contingencyJudgement bim 3570 -39 audio-slider-response 601 0 14 1 25 effe barrel
12425 1422677 FL contingencyJudgement bim 3672 -25 audio-slider-response 584 0 14 1 25 effe barrel
12425 1420163 FL contingencyJudgement dep 2384 -66 audio-slider-response 604 1 14 1 25 effe barrel
12425 1458996 LF contingencyJudgement dep 2473 100 audio-slider-response 587 1 15 1 25 effe barrel
12425 1431942 LF contingencyJudgement tob 3539 70 audio-slider-response 587 0 14 1 25 effe barrel
12425 1459699 LF contingencyJudgement dep 2650 43 audio-slider-response 601 1 15 1 25 effe barrel
12425 1431989 LF contingencyJudgement bim 4979 32 audio-slider-response 581 0 14 1 25 effe barrel
12425 1420580 FL contingencyJudgement tob 2931 -100 audio-slider-response 610 0 14 1 25 effe barrel
12425 1431948 LF contingencyJudgement bim 2101 -100 audio-slider-response 627 0 14 1 25 effe barrel
12425 1459708 FL contingencyJudgement bim 3111 -35 audio-slider-response 624 0 15 1 25 effe barrel
12425 1431966 LF contingencyJudgement bim 2669 -34 audio-slider-response 595 0 14 1 25 effe barrel
12425 1459025 LF contingencyJudgement tob 1531 -64 audio-slider-response 595 0 15 1 25 effe barrel
12425 1431944 FL contingencyJudgement dep 1939 8 audio-slider-response 586 1 14 1 25 effe barrel
12475 1422715 LF contingencyJudgement dep 4171 100 audio-slider-response 589 1 14 1 75 cabc jar
12475 1422467 LF contingencyJudgement bim 3368 -52 audio-slider-response 585 0 14 1 75 cabc jar
12475 1422675 FL contingencyJudgement dep 1840 100 audio-slider-response 624 1 14 1 75 cabc jar
12475 1420185 LF contingencyJudgement dep 3360 100 audio-slider-response 613 1 14 1 75 cabc jar
12475 1422680 LF contingencyJudgement dep 2571 32 audio-slider-response 599 1 14 1 75 cabc jar
12475 1459064 FL contingencyJudgement dep 3328 25 audio-slider-response 612 1 15 1 75 cabc jar
12475 1420165 FL contingencyJudgement tob 3400 23 audio-slider-response 584 0 14 1 75 cabc jar
12525 1422467 LF contingencyJudgement bim 3339 -40 audio-slider-response 607 0 14 1 25 effg barrel
12525 1459709 LF contingencyJudgement tob 2869 15 audio-slider-response 601 0 15 1 25 effg barrel
12525 1459703 FL contingencyJudgement tob 2480 31 audio-slider-response 622 0 15 1 25 effg barrel
12525 1431974 FL contingencyJudgement bim 2926 -51 audio-slider-response 598 0 14 1 25 effg barrel
12525 1431969 FL contingencyJudgement tob 2229 100 audio-slider-response 588 0 14 1 25 effg barrel
12525 1459024 FL contingencyJudgement dep 3582 26 audio-slider-response 614 1 15 1 25 effg barrel
12525 1459029 FL contingencyJudgement tob 2438 23 audio-slider-response 588 0 15 1 25 effg barrel
12525 1459696 FL contingencyJudgement dep 3619 15 audio-slider-response 567 1 15 1 25 effg barrel
12525 1431998 LF contingencyJudgement tob 3040 12 audio-slider-response 611 0 14 1 25 effg barrel
12525 1459064 FL contingencyJudgement dep 2240 22 audio-slider-response 588 1 15 1 25 effg barrel
12525 1459043 LF contingencyJudgement dep 2728 -100 audio-slider-response 607 1 15 1 25 effg barrel
12525 1458997 LF contingencyJudgement dep 4739 3 audio-slider-response 605 1 15 1 25 effg barrel
12525 1431965 FL contingencyJudgement bim 4000 11 audio-slider-response 596 0 14 1 25 effg barrel
12525 1459700 LF contingencyJudgement tob 3619 -92 audio-slider-response 581 0 15 1 25 effg barrel
12525 1432301 LF contingencyJudgement bim 4128 -8 audio-slider-response 607 0 14 1 25 effg barrel
12525 1431984 FL contingencyJudgement bim 1904 -100 audio-slider-response 616 0 14 1 25 effg barrel
12575 1422467 LF contingencyJudgement bim 3832 -63 audio-slider-response 597 0 14 1 75 cacb jar
12575 1458998 LF contingencyJudgement dep 2914 100 audio-slider-response 627 1 15 1 75 cacb jar
12575 1431966 LF contingencyJudgement bim 4989 -96 audio-slider-response 583 0 14 1 75 cacb jar
12575 1422678 LF contingencyJudgement bim 2705 -71 audio-slider-response 609 0 14 1 75 cacb jar
12575 1422476 LF contingencyJudgement dep 1960 100 audio-slider-response 587 1 14 1 75 cacb jar
12575 1414957 FL contingencyJudgement tob 3303 60 audio-slider-response 582 0 14 1 75 cacb jar
12575 1431954 LF contingencyJudgement bim 2032 57 audio-slider-response 619 0 14 1 75 cacb jar
12575 1459002 FL contingencyJudgement tob 3576 47 audio-slider-response 582 0 15 1 75 cacb jar
12575 1420580 FL contingencyJudgement tob 2901 -100 audio-slider-response 616 0 14 1 75 cacb jar
12575 1459699 LF contingencyJudgement dep 2429 76 audio-slider-response 623 1 15 1 75 cacb jar
12575 1420204 LF contingencyJudgement bim 4691 -100 audio-slider-response 603 0 14 1 75 cacb jar
12675 1432003 LF contingencyJudgement dep 3211 100 audio-slider-response 619 1 14 1 75 ccab jar
12675 1422466 FL contingencyJudgement bim 2331 38 audio-slider-response 612 0 14 1 75 ccab jar
12675 1459043 LF contingencyJudgement dep 3709 39 audio-slider-response 583 1 15 1 75 ccab jar
12675 1432007 LF contingencyJudgement tob 1459 100 audio-slider-response 595 0 14 1 75 ccab jar
12675 1458992 FL contingencyJudgement dep 2880 33 audio-slider-response 580 1 15 1 75 ccab jar
12675 1431989 LF contingencyJudgement bim 3331 -46 audio-slider-response 599 0 14 1 75 ccab jar
12675 1459048 FL contingencyJudgement tob 1463 18 audio-slider-response 622 0 15 1 75 ccab jar
12675 1431979 FL contingencyJudgement bim 2312 -100 audio-slider-response 592 0 14 1 75 ccab jar
12675 1459709 LF contingencyJudgement tob 2811 -18 audio-slider-response 589 0 15 1 75 ccab jar
12675 1431981 LF contingencyJudgement tob 2568 72 audio-slider-response 597 0 14 1 75 ccab jar
12675 1459109 LF contingencyJudgement tob 3360 -51 audio-slider-response 587 0 15 1 75 ccab jar
12675 1414945 FL contingencyJudgement bim 3442 -100 audio-slider-response 610 0 14 1 75 ccab jar
12675 1459699 LF contingencyJudgement dep 2453 48 audio-slider-response 605 1 15 1 75 ccab jar
12675 1431966 LF contingencyJudgement bim 3560 -92 audio-slider-response 585 0 14 1 75 ccab jar
12675 1431946 FL contingencyJudgement dep 3024 -100 audio-slider-response 612 1 14 1 75 ccab jar
12675 1420163 FL contingencyJudgement dep 3056 26 audio-slider-response 586 1 14 1 75 ccab jar
12675 1422477 FL contingencyJudgement bim 3059 -64 audio-slider-response 588 0 14 1 75 ccab jar
12775 1431998 LF contingencyJudgement tob 3171 -44 audio-slider-response 627 0 14 1 75 bbba jar
12775 1459007 FL contingencyJudgement bim 2851 51 audio-slider-response 582 0 15 1 75 bbba jar
12775 1459109 LF contingencyJudgement tob 3552 39 audio-slider-response 613 0 15 1 75 bbba jar
12775 1415040 FL contingencyJudgement tob 2952 -100 audio-slider-response 584 0 14 1 75 bbba jar
12775 1431965 FL contingencyJudgement bim 4072 -100 audio-slider-response 624 0 14 1 75 bbba jar
12775 1459067 LF contingencyJudgement bim 3419 -72 audio-slider-response 623 0 15 1 75 bbba jar
12775 1459709 LF contingencyJudgement tob 4221 28 audio-slider-response 603 0 15 1 75 bbba jar
12775 1420185 LF contingencyJudgement dep 2861 100 audio-slider-response 623 1 14 1 75 bbba jar
12775 1431957 FL contingencyJudgement bim 2183 -80 audio-slider-response 612 0 14 1 75 bbba jar
12775 1422680 LF contingencyJudgement dep 2949 36 audio-slider-response 589 1 14 1 75 bbba jar
12775 1414933 LF contingencyJudgement dep 3056 100 audio-slider-response 619 1 14 1 75 bbba jar
12775 1459018 FL contingencyJudgement tob 4181 -77 audio-slider-response 584 0 15 1 75 bbba jar
12775 1459001 FL contingencyJudgement tob 2840 -44 audio-slider-response 602 0 15 1 75 bbba jar
12775 1459701 LF contingencyJudgement bim 3053 -82 audio-slider-response 595 0 15 1 75 bbba jar
12775 1431942 LF contingencyJudgement tob 2029 -100 audio-slider-response 623 0 14 1 75 bbba jar
12875 1459696 FL contingencyJudgement dep 2179 28 audio-slider-response 585 1 15 1 75 baba jar
12875 1431956 LF contingencyJudgement tob 3582 0 audio-slider-response 599 0 14 1 75 baba jar
12875 1431978 FL contingencyJudgement bim 3036 69 audio-slider-response 606 0 14 1 75 baba jar
12875 1431952 LF contingencyJudgement bim 4299 8 audio-slider-response 583 0 14 1 75 baba jar
12875 1432011 FL contingencyJudgement dep 1515 76 audio-slider-response 600 1 14 1 75 baba jar
12875 1459064 FL contingencyJudgement dep 2699 20 audio-slider-response 604 1 15 1 75 baba jar
12875 1422716 FL contingencyJudgement bim 4128 -100 audio-slider-response 600 0 14 1 75 baba jar
12875 1432003 LF contingencyJudgement dep 3480 77 audio-slider-response 583 1 14 1 75 baba jar
12875 1458996 LF contingencyJudgement dep 2792 100 audio-slider-response 627 1 15 1 75 baba jar
12875 1459001 FL contingencyJudgement tob 2320 -15 audio-slider-response 616 0 15 1 75 baba jar
12875 1457883 LF contingencyJudgement bim 3286 -63 audio-slider-response 611 0 15 1 75 baba jar
12875 1459015 LF contingencyJudgement dep 3547 -80 audio-slider-response 621 1 15 1 75 baba jar
12875 1420580 FL contingencyJudgement tob 2720 -100 audio-slider-response 612 0 14 1 75 baba jar
12875 1422467 LF contingencyJudgement bim 3328 -54 audio-slider-response 601 0 14 1 75 baba jar
12875 1459009 FL contingencyJudgement bim 2499 -60 audio-slider-response 600 0 15 1 75 baba jar
12875 1431953 FL contingencyJudgement tob 1962 21 audio-slider-response 608 0 14 1 75 baba jar
12875 1459767 FL contingencyJudgement bim 1920 -100 audio-slider-response 612 0 15 1 75 baba jar
12875 1414945 FL contingencyJudgement bim 3930 -99 audio-slider-response 600 0 14 1 75 baba jar
12875 1459029 FL contingencyJudgement tob 2281 -100 audio-slider-response 610 0 15 1 75 baba jar
12875 1432323 LF contingencyJudgement tob 2459 -76 audio-slider-response 603 0 14 1 75 baba jar
12875 1431979 FL contingencyJudgement bim 2520 -100 audio-slider-response 616 0 14 1 75 baba jar
12875 1432301 LF contingencyJudgement bim 3136 -100 audio-slider-response 597 0 14 1 75 baba jar
12875 1420552 LF contingencyJudgement bim 4389 -11 audio-slider-response 583 0 14 1 75 baba jar
12975 1459702 FL contingencyJudgement bim 1531 -20 audio-slider-response 594 0 15 1 75 bbbd jar
12975 1420552 LF contingencyJudgement bim 3491 -29 audio-slider-response 599 0 14 1 75 bbbd jar
12975 1431949 FL contingencyJudgement dep 2509 100 audio-slider-response 624 1 14 1 75 bbbd jar
12975 1414937 FL contingencyJudgement dep 2171 100 audio-slider-response 612 1 14 1 75 bbbd jar
12975 1459706 FL contingencyJudgement tob 2438 -87 audio-slider-response 592 0 15 1 75 bbbd jar
13075 1459013 FL contingencyJudgement bim 2949 100 audio-slider-response 588 0 15 1 75 babb jar
13075 1422463 FL contingencyJudgement bim 3593 -100 audio-slider-response 580 0 14 1 75 babb jar
13075 1458996 LF contingencyJudgement dep 2409 100 audio-slider-response 593 1 15 1 75 babb jar
13075 1459067 LF contingencyJudgement bim 3400 -61 audio-slider-response 617 0 15 1 75 babb jar
13075 1459697 FL contingencyJudgement dep 2978 -100 audio-slider-response 594 1 15 1 75 babb jar
13075 1431949 FL contingencyJudgement dep 2411 100 audio-slider-response 592 1 14 1 75 babb jar
13075 1457883 LF contingencyJudgement bim 3111 -78 audio-slider-response 581 0 15 1 75 babb jar
13075 1459046 LF contingencyJudgement tob 4131 -11 audio-slider-response 591 0 15 1 75 babb jar
13075 1432009 FL contingencyJudgement bim 3030 -100 audio-slider-response 586 0 14 1 75 babb jar
13075 1422716 FL contingencyJudgement bim 4128 -100 audio-slider-response 578 0 14 1 75 babb jar
13075 1431961 FL contingencyJudgement dep 2635 -67 audio-slider-response 614 1 14 1 75 babb jar
13075 1432052 FL contingencyJudgement bim 2789 95 audio-slider-response 600 0 14 1 75 babb jar
13075 1420185 LF contingencyJudgement dep 3339 -83 audio-slider-response 585 1 14 1 75 babb jar
13175 1459024 FL contingencyJudgement dep 2386 -9 audio-slider-response 616 1 15 1 75 accb jar
13175 1420165 FL contingencyJudgement tob 1952 31 audio-slider-response 622 0 14 1 75 accb jar
13175 1420577 LF contingencyJudgement dep 3912 80 audio-slider-response 619 1 14 1 75 accb jar
13175 1432007 LF contingencyJudgement tob 1291 -100 audio-slider-response 615 0 14 1 75 accb jar
13175 1459706 FL contingencyJudgement tob 2139 -69 audio-slider-response 620 0 15 1 75 accb jar
13175 1420573 LF contingencyJudgement dep 4043 45 audio-slider-response 589 1 14 1 75 accb jar
13175 1432301 LF contingencyJudgement bim 2891 -100 audio-slider-response 625 0 14 1 75 accb jar
13175 1432030 LF contingencyJudgement dep 2640 100 audio-slider-response 599 1 14 1 75 accb jar
13175 1414933 LF contingencyJudgement dep 2621 100 audio-slider-response 625 1 14 1 75 accb jar
13175 1431998 LF contingencyJudgement tob 2629 -48 audio-slider-response 621 0 14 1 75 accb jar
13175 1459003 FL contingencyJudgement tob 4160 -12 audio-slider-response 620 0 15 1 75 accb jar
13275 1459046 LF contingencyJudgement tob 2520 7 audio-slider-response 617 0 15 1 75 aacc jar
13275 1459001 FL contingencyJudgement tob 3629 64 audio-slider-response 590 0 15 1 75 aacc jar
13275 1422681 LF contingencyJudgement tob 3663 -100 audio-slider-response 591 0 14 1 75 aacc jar
13275 1431966 LF contingencyJudgement bim 3051 -25 audio-slider-response 625 0 14 1 75 aacc jar
13275 1422470 LF contingencyJudgement tob 4971 81 audio-slider-response 599 0 14 1 75 aacc jar
13275 1414945 FL contingencyJudgement bim 4116 -99 audio-slider-response 584 0 14 1 75 aacc jar
13275 1420204 LF contingencyJudgement bim 3440 -32 audio-slider-response 621 0 14 1 75 aacc jar
13275 1432030 LF contingencyJudgement dep 2229 100 audio-slider-response 609 1 14 1 75 aacc jar
13275 1431984 FL contingencyJudgement bim 3878 -100 audio-slider-response 624 0 14 1 75 aacc jar
13375 1459024 FL contingencyJudgement dep 2961 6 audio-slider-response 598 1 15 1 75 cbcc jar
13375 1431978 FL contingencyJudgement bim 3274 69 audio-slider-response 596 0 14 1 75 cbcc jar
13375 1458998 LF contingencyJudgement dep 2595 100 audio-slider-response 603 1 15 1 75 cbcc jar
13375 1459708 FL contingencyJudgement bim 2746 -100 audio-slider-response 592 0 15 1 75 cbcc jar
13375 1459064 FL contingencyJudgement dep 2539 17 audio-slider-response 606 1 15 1 75 cbcc jar
13375 1422715 LF contingencyJudgement dep 3592 100 audio-slider-response 621 1 14 1 75 cbcc jar
13375 1414933 LF contingencyJudgement dep 3422 100 audio-slider-response 613 1 14 1 75 cbcc jar
13375 1459703 FL contingencyJudgement tob 3621 -47 audio-slider-response 586 0 15 1 75 cbcc jar
13375 1431999 LF contingencyJudgement dep 2749 71 audio-slider-response 613 1 14 1 75 cbcc jar
13375 1459047 FL contingencyJudgement bim 4180 -61 audio-slider-response 612 0 15 1 75 cbcc jar
13375 1458997 LF contingencyJudgement dep 3419 -15 audio-slider-response 601 1 15 1 75 cbcc jar
13475 1459709 LF contingencyJudgement tob 2701 56 audio-slider-response 621 0 15 1 75 bbca jar
13475 1420204 LF contingencyJudgement bim 3728 -35 audio-slider-response 617 0 14 1 75 bbca jar
13475 1431957 FL contingencyJudgement bim 2241 -69 audio-slider-response 602 0 14 1 75 bbca jar
13475 1431979 FL contingencyJudgement bim 3059 -100 audio-slider-response 604 0 14 1 75 bbca jar
13475 1459007 FL contingencyJudgement bim 2429 7 audio-slider-response 590 0 15 1 75 bbca jar
13475 1459013 FL contingencyJudgement bim 2371 100 audio-slider-response 606 0 15 1 75 bbca jar
13475 1422473 LF contingencyJudgement dep 3320 53 audio-slider-response 625 1 14 1 75 bbca jar
13475 1422681 LF contingencyJudgement tob 4104 -96 audio-slider-response 587 0 14 1 75 bbca jar
13475 1458992 FL contingencyJudgement dep 1920 24 audio-slider-response 612 1 15 1 75 bbca jar
13475 1414945 FL contingencyJudgement bim 3706 -100 audio-slider-response 596 0 14 1 75 bbca jar
13475 1422677 FL contingencyJudgement bim 4461 2 audio-slider-response 616 0 14 1 75 bbca jar
13475 1459025 LF contingencyJudgement tob 1549 -12 audio-slider-response 603 0 15 1 75 bbca jar
13475 1459067 LF contingencyJudgement bim 3749 -55 audio-slider-response 605 0 15 1 75 bbca jar
13575 1420169 LF contingencyJudgement bim 4772 -12 audio-slider-response 593 0 14 1 75 bbcc jar
13575 1422463 FL contingencyJudgement bim 4435 -100 audio-slider-response 618 0 14 1 75 bbcc jar
13575 1431954 LF contingencyJudgement bim 1974 27 audio-slider-response 589 0 14 1 75 bbcc jar
13575 1431946 FL contingencyJudgement dep 3489 -100 audio-slider-response 588 1 14 1 75 bbcc jar
13575 1422678 LF contingencyJudgement bim 3088 -82 audio-slider-response 593 0 14 1 75 bbcc jar
13575 1431969 FL contingencyJudgement tob 2648 -100 audio-slider-response 598 0 14 1 75 bbcc jar
13575 1431953 FL contingencyJudgement tob 4325 -52 audio-slider-response 590 0 14 1 75 bbcc jar
13575 1431992 FL contingencyJudgement tob 3080 -100 audio-slider-response 596 0 14 1 75 bbcc jar
13575 1420580 FL contingencyJudgement tob 3661 -100 audio-slider-response 588 0 14 1 75 bbcc jar
13575 1431981 LF contingencyJudgement tob 2800 -27 audio-slider-response 587 0 14 1 75 bbcc jar
13575 1431970 LF contingencyJudgement tob 2061 -100 audio-slider-response 591 0 14 1 75 bbcc jar
20125 1420577 LF contingencyJudgement bim 2960 -59 audio-slider-response 603 1 14 2 25 eeee jar
20125 1422470 LF contingencyJudgement bim 2832 -74 audio-slider-response 597 1 14 2 25 eeee jar
20125 1459052 FL contingencyJudgement dep 3199 -100 audio-slider-response 586 0 15 2 25 eeee jar
20125 1420185 LF contingencyJudgement bim 3091 80 audio-slider-response 603 1 14 2 25 eeee jar
20125 1431956 LF contingencyJudgement dep 2316 -32 audio-slider-response 623 0 14 2 25 eeee jar
20125 1458998 LF contingencyJudgement bim 3587 28 audio-slider-response 593 1 15 2 25 eeee jar
20125 1431970 LF contingencyJudgement dep 1451 100 audio-slider-response 587 0 14 2 25 eeee jar
20125 1420180 FL contingencyJudgement bim 3437 3 audio-slider-response 602 1 14 2 25 eeee jar
20125 1457883 LF contingencyJudgement tob 2537 -43 audio-slider-response 597 0 15 2 25 eeee jar
20125 1431949 FL contingencyJudgement bim 2931 100 audio-slider-response 622 1 14 2 25 eeee jar
20125 1422681 LF contingencyJudgement dep 3024 20 audio-slider-response 623 0 14 2 25 eeee jar
20125 1432009 FL contingencyJudgement dep 2775 -5 audio-slider-response 592 0 14 2 25 eeee jar
20125 1431957 FL contingencyJudgement tob 2397 -31 audio-slider-response 586 0 14 2 25 eeee jar
20125 1459697 FL contingencyJudgement bim 2229 100 audio-slider-response 608 1 15 2 25 eeee jar
20125 1431999 LF contingencyJudgement bim 3549 28 audio-slider-response 625 1 14 2 25 eeee jar
20175 1431984 FL contingencyJudgement dep 2101 -100 audio-slider-response 606 0 14 2 75 aaaa trunk
20175 1431953 FL contingencyJudgement bim 2212 100 audio-slider-response 594 1 14 2 75 aaaa trunk
20175 1458998 LF contingencyJudgement bim 2990 83 audio-slider-response 625 1 15 2 75 aaaa trunk
20175 1459703 FL contingencyJudgement dep 3560 -100 audio-slider-response 598 0 15 2 75 aaaa trunk
20175 1432011 FL contingencyJudgement tob 1669 91 audio-slider-response 624 0 14 2 75 aaaa trunk
20175 1431999 LF contingencyJudgement bim 4480 80 audio-slider-response 583 1 14 2 75 aaaa trunk
20225 1459002 FL contingencyJudgement bim 3686 -63 audio-slider-response 586 1 15 2 25 ffee jar
20225 1459015 LF contingencyJudgement tob 2630 -97 audio-slider-response 605 0 15 2 25 ffee jar
20225 1432030 LF contingencyJudgement tob 2309 35 audio-slider-response 625 0 14 2 25 ffee jar
20225 1459007 FL contingencyJudgement dep 2461 13 audio-slider-response 588 0 15 2 25 ffee jar
20225 1431961 FL contingencyJudgement bim 2229 75 audio-slider-response 610 1 14 2 25 ffee jar
20225 1458992 FL contingencyJudgement bim 2349 -36 audio-slider-response 610 1 15 2 25 ffee jar
20225 1422473 LF contingencyJudgement bim 4629 -56 audio-slider-response 613 1 14 2 25 ffee jar
20225 1431948 LF contingencyJudgement tob 2099 28 audio-slider-response 601 0 14 2 25 ffee jar
20225 1459029 FL contingencyJudgement bim 2171 18 audio-slider-response 618 1 15 2 25 ffee jar
20225 1459018 FL contingencyJudgement dep 3811 76 audio-slider-response 578 0 15 2 25 ffee jar
20225 1414945 FL contingencyJudgement tob 2682 50 audio-slider-response 622 0 14 2 25 ffee jar
20225 1420552 LF contingencyJudgement dep 1072 -54 audio-slider-response 605 0 14 2 25 ffee jar
20225 1431963 LF contingencyJudgement tob 3158 -100 audio-slider-response 599 0 14 2 25 ffee jar
20225 1420573 LF contingencyJudgement bim 3120 39 audio-slider-response 607 1 14 2 25 ffee jar
20225 1431998 LF contingencyJudgement dep 2968 -79 audio-slider-response 589 0 14 2 25 ffee jar
20225 1459064 FL contingencyJudgement tob 2069 22 audio-slider-response 622 0 15 2 25 ffee jar
20225 1422676 LF contingencyJudgement tob 3000 -72 audio-slider-response 589 0 14 2 25 ffee jar
20275 1458998 LF contingencyJudgement bim 2688 100 audio-slider-response 613 1 15 2 75 bbbb trunk
20275 1431948 LF contingencyJudgement tob 2080 -35 audio-slider-response 613 0 14 2 75 bbbb trunk
20275 1420204 LF contingencyJudgement dep 4840 -100 audio-slider-response 619 0 14 2 75 bbbb trunk
20275 1431969 FL contingencyJudgement bim 4749 52 audio-slider-response 578 1 14 2 75 bbbb trunk
20275 1459696 FL contingencyJudgement tob 1720 47 audio-slider-response 577 0 15 2 75 bbbb trunk
20275 1431978 FL contingencyJudgement dep 2531 -50 audio-slider-response 600 0 14 2 75 bbbb trunk
20275 1431998 LF contingencyJudgement dep 3248 -66 audio-slider-response 593 0 14 2 75 bbbb trunk
20275 1422472 FL contingencyJudgement tob 3243 -100 audio-slider-response 616 0 14 2 75 bbbb trunk
20275 1431942 LF contingencyJudgement dep 3181 -100 audio-slider-response 593 0 14 2 75 bbbb trunk
20275 1414937 FL contingencyJudgement bim 1971 100 audio-slider-response 620 1 14 2 75 bbbb trunk
20275 1431949 FL contingencyJudgement bim 2669 100 audio-slider-response 606 1 14 2 75 bbbb trunk
20275 1432007 LF contingencyJudgement bim 2051 100 audio-slider-response 581 1 14 2 75 bbbb trunk
20275 1459024 FL contingencyJudgement bim 3419 48 audio-slider-response 586 1 15 2 75 bbbb trunk
20275 1459708 FL contingencyJudgement dep 2572 -100 audio-slider-response 620 0 15 2 75 bbbb trunk
20275 1422678 LF contingencyJudgement dep 2786 -52 audio-slider-response 607 0 14 2 75 bbbb trunk
20325 1459001 FL contingencyJudgement bim 2720 42 audio-slider-response 592 1 15 2 25 gggf jar
20325 1431963 LF contingencyJudgement tob 2479 -100 audio-slider-response 617 0 14 2 25 gggf jar
20325 1431957 FL contingencyJudgement tob 2305 12 audio-slider-response 592 0 14 2 25 gggf jar
20325 1422470 LF contingencyJudgement bim 3480 -53 audio-slider-response 601 1 14 2 25 gggf jar
20325 1414957 FL contingencyJudgement dep 3413 77 audio-slider-response 594 0 14 2 25 gggf jar
20325 1422679 FL contingencyJudgement dep 2101 -26 audio-slider-response 616 0 14 2 25 gggf jar
20325 1459767 FL contingencyJudgement tob 2701 -100 audio-slider-response 602 0 15 2 25 gggf jar
20325 1422675 FL contingencyJudgement bim 2661 20 audio-slider-response 600 1 14 2 25 gggf jar
20325 1432011 FL contingencyJudgement tob 1637 -50 audio-slider-response 612 0 14 2 25 gggf jar
20325 1459109 LF contingencyJudgement bim 4240 -7 audio-slider-response 621 1 15 2 25 gggf jar
20325 1414937 FL contingencyJudgement bim 2381 100 audio-slider-response 618 1 14 2 25 gggf jar
20325 1420169 LF contingencyJudgement tob 4365 6 audio-slider-response 597 0 14 2 25 gggf jar
20375 1431974 FL contingencyJudgement dep 2728 -18 audio-slider-response 620 0 14 2 75 bccb trunk
20375 1422465 FL contingencyJudgement tob 2496 -100 audio-slider-response 600 0 14 2 75 bccb trunk
20375 1422677 FL contingencyJudgement dep 3248 38 audio-slider-response 590 0 14 2 75 bccb trunk
20375 1459018 FL contingencyJudgement dep 3720 -10 audio-slider-response 598 0 15 2 75 bccb trunk
20375 1431966 LF contingencyJudgement tob 2499 -55 audio-slider-response 609 0 14 2 75 bccb trunk
20375 1420580 FL contingencyJudgement bim 2739 100 audio-slider-response 608 1 14 2 75 bccb trunk
20375 1422675 FL contingencyJudgement bim 2531 100 audio-slider-response 618 1 14 2 75 bccb trunk
20375 1431946 FL contingencyJudgement tob 4807 -100 audio-slider-response 598 0 14 2 75 bccb trunk
20375 1431959 LF contingencyJudgement tob 2819 -100 audio-slider-response 601 0 14 2 75 bccb trunk
20375 1459699 LF contingencyJudgement bim 3468 63 audio-slider-response 617 1 15 2 75 bccb trunk
20375 1431979 FL contingencyJudgement tob 2261 -100 audio-slider-response 612 0 14 2 75 bccb trunk
20375 1459696 FL contingencyJudgement tob 1869 -22 audio-slider-response 583 0 15 2 75 bccb trunk
20375 1431999 LF contingencyJudgement bim 2432 85 audio-slider-response 601 1 14 2 75 bccb trunk
20375 1459052 FL contingencyJudgement dep 2290 61 audio-slider-response 620 0 15 2 75 bccb trunk
20425 1431969 FL contingencyJudgement bim 2752 46 audio-slider-response 624 1 14 2 25 ffgg jar
20425 1422678 LF contingencyJudgement dep 2525 -76 audio-slider-response 617 0 14 2 25 ffgg jar
20425 1432007 LF contingencyJudgement bim 1040 -100 audio-slider-response 591 1 14 2 25 ffgg jar
20425 1422680 LF contingencyJudgement bim 2731 17 audio-slider-response 603 1 14 2 25 ffgg jar
20425 1459703 FL contingencyJudgement dep 2840 75 audio-slider-response 614 0 15 2 25 ffgg jar
20425 1459003 FL contingencyJudgement bim 4301 31 audio-slider-response 606 1 15 2 25 ffgg jar
20425 1459697 FL contingencyJudgement bim 2624 100 audio-slider-response 622 1 15 2 25 ffgg jar
20425 1422467 LF contingencyJudgement dep 2939 -43 audio-slider-response 619 0 14 2 25 ffgg jar
20425 1414957 FL contingencyJudgement dep 3149 75 audio-slider-response 598 0 14 2 25 ffgg jar
20425 1420163 FL contingencyJudgement bim 3995 -1 audio-slider-response 580 1 14 2 25 ffgg jar
20425 1459001 FL contingencyJudgement bim 2899 -56 audio-slider-response 584 1 15 2 25 ffgg jar
20425 1422677 FL contingencyJudgement dep 3802 5 audio-slider-response 582 0 14 2 25 ffgg jar
20425 1420552 LF contingencyJudgement dep 2739 13 audio-slider-response 585 0 14 2 25 ffgg jar
20425 1431953 FL contingencyJudgement bim 2612 -40 audio-slider-response 624 1 14 2 25 ffgg jar
20425 1422470 LF contingencyJudgement bim 2851 -53 audio-slider-response 607 1 14 2 25 ffgg jar
20475 1459700 LF contingencyJudgement dep 3823 -100 audio-slider-response 587 0 15 2 75 cdbb trunk
20475 1459025 LF contingencyJudgement bim 1829 43 audio-slider-response 615 1 15 2 75 cdbb trunk
20475 1420577 LF contingencyJudgement bim 4291 26 audio-slider-response 613 1 14 2 75 cdbb trunk
20475 1422676 LF contingencyJudgement tob 3741 47 audio-slider-response 617 0 14 2 75 cdbb trunk
20475 1459064 FL contingencyJudgement tob 2811 -99 audio-slider-response 618 0 15 2 75 cdbb trunk
20475 1420622 FL contingencyJudgement bim 2680 100 audio-slider-response 622 1 14 2 75 cdbb trunk
20475 1457883 LF contingencyJudgement tob 2276 -100 audio-slider-response 595 0 15 2 75 cdbb trunk
20525 1422470 LF contingencyJudgement bim 3080 -63 audio-slider-response 613 1 14 2 25 gffg jar
20525 1431992 FL contingencyJudgement dep 3819 -100 audio-slider-response 612 0 14 2 25 gffg jar
20525 1431999 LF contingencyJudgement bim 3819 20 audio-slider-response 609 1 14 2 25 gffg jar
20525 1459025 LF contingencyJudgement bim 1301 -53 audio-slider-response 609 1 15 2 25 gffg jar
20525 1459001 FL contingencyJudgement bim 2320 30 audio-slider-response 618 1 15 2 25 gffg jar
20525 1459036 LF contingencyJudgement dep 3629 100 audio-slider-response 605 0 15 2 25 gffg jar
20525 1459046 LF contingencyJudgement bim 2120 51 audio-slider-response 621 1 15 2 25 gffg jar
20525 1431966 LF contingencyJudgement tob 3509 30 audio-slider-response 589 0 14 2 25 gffg jar
20525 1431948 LF contingencyJudgement tob 2229 50 audio-slider-response 625 0 14 2 25 gffg jar
20525 1431957 FL contingencyJudgement tob 4319 -5 audio-slider-response 610 0 14 2 25 gffg jar
20525 1422677 FL contingencyJudgement dep 2090 13 audio-slider-response 606 0 14 2 25 gffg jar
20525 1420204 LF contingencyJudgement dep 3280 100 audio-slider-response 593 0 14 2 25 gffg jar
20525 1431956 LF contingencyJudgement dep 3640 54 audio-slider-response 611 0 14 2 25 gffg jar
20525 1431974 FL contingencyJudgement dep 4040 21 audio-slider-response 618 0 14 2 25 gffg jar
20525 1459703 FL contingencyJudgement dep 3432 83 audio-slider-response 584 0 15 2 25 gffg jar
20525 1422472 FL contingencyJudgement tob 3488 -100 audio-slider-response 600 0 14 2 25 gffg jar
20525 1431942 LF contingencyJudgement dep 3019 52 audio-slider-response 621 0 14 2 25 gffg jar
20525 1432007 LF contingencyJudgement bim 1779 -100 audio-slider-response 597 1 14 2 25 gffg jar
20575 1459046 LF contingencyJudgement bim 1952 100 audio-slider-response 613 1 15 2 75 baaa trunk
20575 1459036 LF contingencyJudgement dep 4269 91 audio-slider-response 617 0 15 2 75 baaa trunk
20575 1459702 FL contingencyJudgement tob 1280 -13 audio-slider-response 614 0 15 2 75 baaa trunk
20575 1431992 FL contingencyJudgement dep 2501 -100 audio-slider-response 592 0 14 2 75 baaa trunk
20575 1415040 FL contingencyJudgement dep 2920 -100 audio-slider-response 610 0 14 2 75 baaa trunk
20575 1458992 FL contingencyJudgement bim 2469 81 audio-slider-response 582 1 15 2 75 baaa trunk
20575 1459767 FL contingencyJudgement tob 1989 -100 audio-slider-response 610 0 15 2 75 baaa trunk
20575 1459015 LF contingencyJudgement tob 2932 -100 audio-slider-response 607 0 15 2 75 baaa trunk
20575 1432075 FL contingencyJudgement bim 3629 100 audio-slider-response 578 1 14 2 75 baaa trunk
20575 1431972 FL contingencyJudgement bim 3367 -3 audio-slider-response 624 1 14 2 75 baaa trunk
20575 1431989 LF contingencyJudgement tob 2491 82 audio-slider-response 621 0 14 2 75 baaa trunk
20575 1422465 FL contingencyJudgement tob 2699 -77 audio-slider-response 608 0 14 2 75 baaa trunk
20575 1459699 LF contingencyJudgement bim 2842 47 audio-slider-response 611 1 15 2 75 baaa trunk
20575 1431954 LF contingencyJudgement tob 1660 -31 audio-slider-response 613 0 14 2 75 baaa trunk
20625 1422680 LF contingencyJudgement bim 4051 -21 audio-slider-response 627 1 14 2 25 efgf jar
20625 1431984 FL contingencyJudgement dep 3053 -100 audio-slider-response 580 0 14 2 25 efgf jar
20625 1459067 LF contingencyJudgement tob 3040 28 audio-slider-response 621 0 15 2 25 efgf jar
20625 1422466 FL contingencyJudgement tob 2701 27 audio-slider-response 620 0 14 2 25 efgf jar
20625 1458998 LF contingencyJudgement bim 2635 -42 audio-slider-response 621 1 15 2 25 efgf jar
20625 1459700 LF contingencyJudgement dep 4052 -77 audio-slider-response 599 0 15 2 25 efgf jar
20625 1431944 FL contingencyJudgement bim 3869 -100 audio-slider-response 596 1 14 2 25 efgf jar
20625 1431952 LF contingencyJudgement dep 4309 4 audio-slider-response 623 0 14 2 25 efgf jar
20625 1431966 LF contingencyJudgement tob 3659 49 audio-slider-response 597 0 14 2 25 efgf jar
20625 1422716 FL contingencyJudgement dep 3637 15 audio-slider-response 598 0 14 2 25 efgf jar
20625 1459024 FL contingencyJudgement bim 3088 -18 audio-slider-response 612 1 15 2 25 efgf jar
20625 1459046 LF contingencyJudgement bim 3640 43 audio-slider-response 581 1 15 2 25 efgf jar
20625 1459696 FL contingencyJudgement tob 1709 52 audio-slider-response 593 0 15 2 25 efgf jar
20675 1422473 LF contingencyJudgement bim 4669 100 audio-slider-response 615 1 14 2 75 baac trunk
20675 1431961 FL contingencyJudgement bim 2049 26 audio-slider-response 584 1 14 2 75 baac trunk
20675 1431949 FL contingencyJudgement bim 2571 100 audio-slider-response 588 1 14 2 75 baac trunk
20675 1459002 FL contingencyJudgement bim 2537 78 audio-slider-response 596 1 15 2 75 baac trunk
20675 1432052 FL contingencyJudgement tob 3280 77 audio-slider-response 618 0 14 2 75 baac trunk
20675 1432003 LF contingencyJudgement bim 3600 81 audio-slider-response 597 1 14 2 75 baac trunk
20675 1459767 FL contingencyJudgement tob 3851 -100 audio-slider-response 592 0 15 2 75 baac trunk
20675 1459018 FL contingencyJudgement dep 3179 -60 audio-slider-response 592 0 15 2 75 baac trunk
20675 1420204 LF contingencyJudgement dep 4909 -100 audio-slider-response 599 0 14 2 75 baac trunk
20675 1420577 LF contingencyJudgement bim 3000 36 audio-slider-response 599 1 14 2 75 baac trunk
20675 1414945 FL contingencyJudgement tob 2824 -100 audio-slider-response 608 0 14 2 75 baac trunk
20675 1422470 LF contingencyJudgement bim 2349 85 audio-slider-response 621 1 14 2 75 baac trunk
20725 1414957 FL contingencyJudgement dep 2853 79 audio-slider-response 596 0 14 2 25 gegf jar
20725 1459007 FL contingencyJudgement dep 2859 -19 audio-slider-response 624 0 15 2 25 gegf jar
20725 1458996 LF contingencyJudgement bim 2566 100 audio-slider-response 595 1 15 2 25 gegf jar
20725 1459043 LF contingencyJudgement tob 2811 -100 audio-slider-response 625 0 15 2 25 gegf jar
20725 1459048 FL contingencyJudgement bim 2865 95 audio-slider-response 602 1 15 2 25 gegf jar
20725 1420577 LF contingencyJudgement bim 3021 -39 audio-slider-response 601 1 14 2 25 gegf jar
20725 1422678 LF contingencyJudgement dep 2920 -83 audio-slider-response 591 0 14 2 25 gegf jar
20725 1422476 LF contingencyJudgement tob 4269 3 audio-slider-response 625 0 14 2 25 gegf jar
20725 1431978 FL contingencyJudgement dep 3140 -67 audio-slider-response 608 0 14 2 25 gegf jar
20725 1432323 LF contingencyJudgement bim 1941 -38 audio-slider-response 591 1 14 2 25 gegf jar
20725 1459701 LF contingencyJudgement tob 3315 -72 audio-slider-response 605 0 15 2 25 gegf jar
20725 1459029 FL contingencyJudgement bim 1759 8 audio-slider-response 622 1 15 2 25 gegf jar
20725 1431966 LF contingencyJudgement tob 2381 47 audio-slider-response 607 0 14 2 25 gegf jar
20725 1459064 FL contingencyJudgement tob 1859 20 audio-slider-response 624 0 15 2 25 gegf jar
20725 1459708 FL contingencyJudgement dep 4545 80 audio-slider-response 578 0 15 2 25 gegf jar
20725 1431969 FL contingencyJudgement bim 3701 58 audio-slider-response 582 1 14 2 25 gegf jar
20725 1459018 FL contingencyJudgement dep 4099 72 audio-slider-response 582 0 15 2 25 gegf jar
20725 1459699 LF contingencyJudgement bim 2752 -2 audio-slider-response 613 1 15 2 25 gegf jar
20725 1431992 FL contingencyJudgement dep 2459 -100 audio-slider-response 616 0 14 2 25 gegf jar
20775 1431954 LF contingencyJudgement tob 1892 -39 audio-slider-response 617 0 14 2 75 aaba trunk
20775 1420163 FL contingencyJudgement bim 2325 100 audio-slider-response 598 1 14 2 75 aaba trunk
20775 1431957 FL contingencyJudgement tob 2589 -68 audio-slider-response 600 0 14 2 75 aaba trunk
20775 1459048 FL contingencyJudgement bim 1332 28 audio-slider-response 586 1 15 2 75 aaba trunk
20775 1431963 LF contingencyJudgement tob 2635 -100 audio-slider-response 609 0 14 2 75 aaba trunk
20775 1459018 FL contingencyJudgement dep 2712 -23 audio-slider-response 610 0 15 2 75 aaba trunk
20775 1422476 LF contingencyJudgement tob 2029 43 audio-slider-response 609 0 14 2 75 aaba trunk
20775 1431968 LF contingencyJudgement bim 2421 100 audio-slider-response 597 1 14 2 75 aaba trunk
20775 1422679 FL contingencyJudgement dep 2305 -100 audio-slider-response 624 0 14 2 75 aaba trunk
20775 1420165 FL contingencyJudgement dep 3080 -100 audio-slider-response 596 0 14 2 75 aaba trunk
20775 1431944 FL contingencyJudgement bim 2189 100 audio-slider-response 616 1 14 2 75 aaba trunk
20825 1420180 FL contingencyJudgement bim 2177 -100 audio-slider-response 618 1 14 2 25 egfe jar
20825 1422477 FL contingencyJudgement dep 2520 73 audio-slider-response 610 0 14 2 25 egfe jar
20825 1432323 LF contingencyJudgement bim 2048 -54 audio-slider-response 617 1 14 2 25 egfe jar
20825 1459702 FL contingencyJudgement tob 2000 -14 audio-slider-response 592 0 15 2 25 egfe jar
20825 1431963 LF contingencyJudgement tob 3268 -100 audio-slider-response 611 0 14 2 25 egfe jar
20825 1431970 LF contingencyJudgement dep 1109 100 audio-slider-response 609 0 14 2 25 egfe jar
20825 1414937 FL contingencyJudgement bim 3749 100 audio-slider-response 578 1 14 2 25 egfe jar
20825 1459709 LF contingencyJudgement dep 4501 3 audio-slider-response 623 0 15 2 25 egfe jar
20825 1431999 LF contingencyJudgement bim 4312 -61 audio-slider-response 587 1 14 2 25 egfe jar
20825 1459007 FL contingencyJudgement dep 3112 22 audio-slider-response 586 0 15 2 25 egfe jar
20825 1420622 FL contingencyJudgement bim 2299 100 audio-slider-response 594 1 14 2 25 egfe jar
20825 1422677 FL contingencyJudgement dep 1890 -36 audio-slider-response 600 0 14 2 25 egfe jar
20825 1459043 LF contingencyJudgement tob 2560 -93 audio-slider-response 615 0 15 2 25 egfe jar
20825 1458996 LF contingencyJudgement bim 2299 100 audio-slider-response 621 1 15 2 25 egfe jar
20825 1414933 LF contingencyJudgement bim 3608 2 audio-slider-response 583 1 14 2 25 egfe jar
20825 1422675 FL contingencyJudgement bim 2149 -4 audio-slider-response 606 1 14 2 25 egfe jar
20825 1422472 FL contingencyJudgement tob 3488 -100 audio-slider-response 614 0 14 2 25 egfe jar
20825 1431984 FL contingencyJudgement dep 2078 -100 audio-slider-response 596 0 14 2 25 egfe jar
20825 1431998 LF contingencyJudgement dep 2208 -59 audio-slider-response 619 0 14 2 25 egfe jar
20825 1432011 FL contingencyJudgement tob 1589 7 audio-slider-response 598 0 14 2 25 egfe jar
20875 1458996 LF contingencyJudgement bim 2287 100 audio-slider-response 601 1 15 2 75 bdbc trunk
20875 1459064 FL contingencyJudgement tob 2701 -100 audio-slider-response 596 0 15 2 75 bdbc trunk
20875 1431953 FL contingencyJudgement bim 2125 100 audio-slider-response 600 1 14 2 75 bdbc trunk
20875 1432030 LF contingencyJudgement tob 3051 -100 audio-slider-response 593 0 14 2 75 bdbc trunk
20875 1459013 FL contingencyJudgement tob 2670 -38 audio-slider-response 612 0 15 2 75 bdbc trunk
20875 1431963 LF contingencyJudgement tob 2995 -96 audio-slider-response 615 0 14 2 75 bdbc trunk
20875 1431992 FL contingencyJudgement dep 2571 -100 audio-slider-response 586 0 14 2 75 bdbc trunk
20875 1459767 FL contingencyJudgement tob 4008 -100 audio-slider-response 600 0 15 2 75 bdbc trunk
20875 1459007 FL contingencyJudgement dep 2029 -100 audio-slider-response 616 0 15 2 75 bdbc trunk
20875 1414957 FL contingencyJudgement dep 2580 -100 audio-slider-response 604 0 14 2 75 bdbc trunk
20875 1420573 LF contingencyJudgement bim 3669 -90 audio-slider-response 603 1 14 2 75 bdbc trunk
20875 1459015 LF contingencyJudgement tob 2630 -100 audio-slider-response 585 0 15 2 75 bdbc trunk
20925 1458997 LF contingencyJudgement bim 2411 89 audio-slider-response 615 1 15 2 25 ffff jar
20925 1432323 LF contingencyJudgement bim 2280 -29 audio-slider-response 623 1 14 2 25 ffff jar
20925 1459048 FL contingencyJudgement bim 2487 65 audio-slider-response 616 1 15 2 25 ffff jar
20925 1459015 LF contingencyJudgement tob 2757 -100 audio-slider-response 615 0 15 2 25 ffff jar
20925 1422477 FL contingencyJudgement dep 2368 71 audio-slider-response 602 0 14 2 25 ffff jar
20925 1432009 FL contingencyJudgement dep 2879 -1 audio-slider-response 600 0 14 2 25 ffff jar
20925 1432003 LF contingencyJudgement bim 3589 74 audio-slider-response 593 1 14 2 25 ffff jar
20925 1422476 LF contingencyJudgement tob 3221 9 audio-slider-response 599 0 14 2 25 ffff jar
20925 1420165 FL contingencyJudgement dep 4360 -100 audio-slider-response 582 0 14 2 25 ffff jar
20925 1431984 FL contingencyJudgement dep 2218 -100 audio-slider-response 584 0 14 2 25 ffff jar
20925 1458998 LF contingencyJudgement bim 4679 -12 audio-slider-response 583 1 15 2 25 ffff jar
20925 1431949 FL contingencyJudgement bim 2440 100 audio-slider-response 618 1 14 2 25 ffff jar
20925 1420573 LF contingencyJudgement bim 2685 100 audio-slider-response 609 1 14 2 25 ffff jar
20925 1420169 LF contingencyJudgement tob 3111 -2 audio-slider-response 605 0 14 2 25 ffff jar
20975 1431953 FL contingencyJudgement bim 2072 100 audio-slider-response 584 1 14 2 75 ccca trunk
20975 1422467 LF contingencyJudgement dep 2971 -34 audio-slider-response 623 0 14 2 75 ccca trunk
20975 1422675 FL contingencyJudgement bim 2459 100 audio-slider-response 596 1 14 2 75 ccca trunk
20975 1459703 FL contingencyJudgement dep 3211 -100 audio-slider-response 580 0 15 2 75 ccca trunk
20975 1432003 LF contingencyJudgement bim 3429 70 audio-slider-response 585 1 14 2 75 ccca trunk
20975 1422463 FL contingencyJudgement dep 4069 -46 audio-slider-response 616 0 14 2 75 ccca trunk
20975 1431969 FL contingencyJudgement bim 2581 -15 audio-slider-response 622 1 14 2 75 ccca trunk
20975 1414933 LF contingencyJudgement bim 3910 100 audio-slider-response 581 1 14 2 75 ccca trunk
20975 1431948 LF contingencyJudgement tob 3309 -11 audio-slider-response 587 0 14 2 75 ccca trunk
20975 1431956 LF contingencyJudgement dep 1904 -53 audio-slider-response 627 0 14 2 75 ccca trunk
21025 1459702 FL contingencyJudgement tob 1189 -10 audio-slider-response 608 0 15 2 25 fffg jar
21025 1431953 FL contingencyJudgement bim 2926 -65 audio-slider-response 580 1 14 2 25 fffg jar
21025 1414933 LF contingencyJudgement bim 2844 2 audio-slider-response 607 1 14 2 25 fffg jar
21025 1431956 LF contingencyJudgement dep 2519 -30 audio-slider-response 593 0 14 2 25 fffg jar
21025 1432003 LF contingencyJudgement bim 3291 100 audio-slider-response 613 1 14 2 25 fffg jar
21025 1422675 FL contingencyJudgement bim 3989 9 audio-slider-response 598 1 14 2 25 fffg jar
21025 1414937 FL contingencyJudgement bim 2229 100 audio-slider-response 582 1 14 2 25 fffg jar
21025 1431972 FL contingencyJudgement bim 3646 100 audio-slider-response 590 1 14 2 25 fffg jar
21025 1422678 LF contingencyJudgement dep 3942 -82 audio-slider-response 597 0 14 2 25 fffg jar
21025 1459003 FL contingencyJudgement bim 3352 37 audio-slider-response 602 1 15 2 25 fffg jar
21025 1420163 FL contingencyJudgement bim 4475 37 audio-slider-response 608 1 14 2 25 fffg jar
