Event Index,UTC Timestamp,UTC Date,Local Timestamp,Local Timezone,Local Date,Experiment ID,Experiment Version,Tree Node Key,Repeat Key,Schedule ID,Participant Public ID,Participant Private ID,Participant Starting Group,Participant Status,Participant Completion Code,Participant External Session ID,Participant Device Type,Participant Device,Participant OS,Participant Browser,Participant Monitor Size,Participant Viewport Size,Checkpoint,Task Name,Task Version,randomiser-cu6n,Reaction Time,Stimulus,Key Press,Test Part,Correct Response,Trial Type,Trial Index,Time Elapsed,Correct,learningType,presentedImage,presentedLabel,response
1,1589724684797,17/05/2020 14:11:24,1589724685496,1,17/05/2020 15:11:25,15519,13,task-q8hp,,4988624,BLIND,1414933,,complete,,5ec1456a35f26d02248ca7f1,computer,Desktop or Laptop,Windows 10,Firefox 76.0,1280x1024,1280x1024,,main exp,56,LF,,,,,,fullscreen,0,3069,,,,,
2,1589724684891,17/05/2020 14:11:24,1589724685499,1,17/05/2020 15:11:25,15519,13,task-q8hp,,4988624,BLIND,1414933,,complete,,5ec1456a35f26d02248ca7f1,computer,Desktop or Laptop,Windows 10,Firefox 76.0,1280x1024,1280x1024,,main exp,56,LF,,,,,,,,,,LF,,,
3,1589724739714,17/05/2020 14:12:19,1589724740439,1,17/05/2020 15:12:20,15519,13,task-q8hp,,4988624,BLIND,1414933,,complete,,5ec1456a35f26d02248ca7f1,computer,Desktop or Laptop,Windows 10,Firefox 76.0,1280x1024,1280x1024,,main exp,56,LF,NA,,,instructions,,instructions,1,58013,,,,,
4,1589724739775,17/05/2020 14:12:19,1589724740441,1,17/05/2020 15:12:20,15519,13,task-q8hp,,4988624,BLIND,1414933,,complete,,5ec1456a35f26d02248ca7f1,computer,Desktop or Laptop,Windows 10,Firefox 76.0,1280x1024,1280x1024,,main exp,56,LF,,,,,,,,,,LF,,,
5,1589724740635,17/05/2020 14:12:20,1589724741386,1,17/05/2020 15:12:21,15519,13,task-q8hp,,4988624,BLIND,1414933,,complete,,5ec1456a35f26d02248ca7f1,computer,Desktop or Laptop,Windows 10,Firefox 76.0,1280x1024,1280x1024,,main exp,56,LF,,"<div style=""font-size:60px;"">+</div>",,,,html-keyboard-response,2,58960,,,,,
6,1589724740713,17/05/2020 14:12:20,1589724741388,1,17/05/2020 15:12:21,15519,13,task-q8hp,,4988624,BLIND,1414933,,complete,,5ec1456a35f26d02248ca7f1,computer,Desktop or Laptop,Windows 10,Firefox 76.0,1280x1024,1280x1024,,main exp,56,LF,,,,,,,,,,LF,,,
7,1589724741579,17/05/2020 14:12:21,1589724742316,1,17/05/2020 15:12:22,15519,13,task-q8hp,,4988624,BLIND,1414933,,complete,,5ec1456a35f26d02248ca7f1,computer,Desktop or Laptop,Windows 10,Firefox 76.0,1280x1024,1280x1024,,main exp,56,LF,,"[""/task/70033/56/asset/LFbeb.mp3""]",,,,audio-keyboard-response,3,59890,,,,,
8,1589724741641,17/05/2020 14:12:21,1589724742317,1,17/05/2020 15:12:22,15519,13,task-q8hp,,4988624,BLIND,1414933,,complete,,5ec1456a35f26d02248ca7f1,computer,Desktop or Laptop,Windows 10,Firefox 76.0,1280x1024,1280x1024,,main exp,56,LF,,,,,,,,,,LF,,,
9,1589724742021,17/05/2020 14:12:22,1589724742756,1,17/05/2020 15:12:22,15519,13,task-q8hp,,4988624,BLIND,1414933,,complete,,5ec1456a35f26d02248ca7f1,computer,Desktop or Laptop,Windows 10,Firefox 76.0,1280x1024,1280x1024,,main exp,56,LF,,"[""/task/70033/56/asset/b1.jpg""]",,practiceTrials,,image-keyboard-response,4,60330,,LF,"[""/task/70033/56/asset/b1.jpg""]","[""/task/70033/56/asset/LFbeb.mp3""]",
10,1589724742100,17/05/2020 14:12:22,1589724742759,1,17/05/2020 15:12:22,15519,13,task-q8hp,,4988624,BLIND,1414933,,complete,,5ec1456a35f26d02248ca7f1,computer,Desktop or Laptop,Windows 10,Firefox 76.0,1280x1024,1280x1024,,main exp,56,LF,,,,,,,,,,LF,,,
11,1589724742963,17/05/2020 14:12:22,1589724743702,1,17/05/2020 15:12:23,15519,13,task-q8hp,,4988624,BLIND,1414933,,complete,,5ec1456a35f26d02248ca7f1,computer,Desktop or Laptop,Windows 10,Firefox 76.0,1280x1024,1280x1024,,main exp,56,LF,,"<div style=""font-size:60px;"">+</div>",,,,html-keyboard-response,5,61275,,,,,
12,1589724743026,17/05/2020 14:12:23,1589724743704,1,17/05/2020 15:12:23,15519,13,task-q8hp,,4988624,BLIND,1414933,,complete,,5ec1456a35f26d02248ca7f1,computer,Desktop or Laptop,Windows 10,Firefox 76.0,1280x1024,1280x1024,,main exp,56,LF,,,,,,,,,,LF,,,
13,1589724743979,17/05/2020 14:12:23,1589724744714,1,17/05/2020 15:12:24,15519,13,task-q8hp,,4988624,BLIND,1414933,,complete,,5ec1456a35f26d02248ca7f1,computer,Desktop or Laptop,Windows 10,Firefox 76.0,1280x1024,1280x1024,,main exp,56,LF,,"[""/task/70033/56/asset/LFzab.mp3""]",,,,audio-keyboard-response,6,62288,,,,,
14,1589724744042,17/05/2020 14:12:24,1589724744717,1,17/05/2020 15:12:24,15519,13,task-q8hp,,4988624,BLIND,1414933,,complete,,5ec1456a35f26d02248ca7f1,computer,Desktop or Laptop,Windows 10,Firefox 76.0,1280x1024,1280x1024,,main exp,56,LF,,,,,,,,,,LF,,,
15,1589724744422,17/05/2020 14:12:24,1589724745156,1,17/05/2020 15:12:25,15519,13,task-q8hp,,4988624,BLIND,1414933,,complete,,5ec1456a35f26d02248ca7f1,computer,Desktop or Laptop,Windows 10,Firefox 76.0,1280x1024,1280x1024,,main exp,56,LF,,"[""/task/70033/56/asset/b3.jpg""]",,practiceTrials,,image-keyboard-response,7,62730,,LF,"[""/task/70033/56/asset/b3.jpg""]","[""/task/70033/56/asset/LFzab.mp3""]",
16,1589724744487,17/05/2020 14:12:24,1589724745159,1,17/05/2020 15:12:25,15519,13,task-q8hp,,4988624,BLIND,1414933,,complete,,5ec1456a35f26d02248ca7f1,computer,Desktop or Laptop,Windows 10,Firefox 76.0,1280x1024,1280x1024,,main exp,56,LF,,,,,,,,,,LF,,,
17,1589724745362,17/05/2020 14:12:25,1589724746102,1,17/05/2020 15:12:26,15519,13,task-q8hp,,4988624,BLIND,1414933,,complete,,5ec1456a35f26d02248ca7f1,computer,Desktop or Laptop,Windows 10,Firefox 76.0,1280x1024,1280x1024,,main exp,56,LF,,"<div style=""font-size:60px;"">+</div>",,,,html-keyboard-response,8,63676,,,,,
18,1589724745440,17/05/2020 14:12:25,1589724746104,1,17/05/2020 15:12:26,15519,13,task-q8hp,,4988624,BLIND,1414933,,complete,,5ec1456a35f26d02248ca7f1,computer,Desktop or Laptop,Windows 10,Firefox 76.0,1280x1024,1280x1024,,main exp,56,LF,,,,,,,,,,LF,,,
19,1589724746275,17/05/2020 14:12:26,1589724747020,1,17/05/2020 15:12:27,15519,13,task-q8hp,,4988624,BLIND,1414933,,complete,,5ec1456a35f26d02248ca7f1,computer,Desktop or Laptop,Windows 10,Firefox 76.0,1280x1024,1280x1024,,main exp,56,LF,,"[""/task/70033/56/asset/LFpog.mp3""]",,,,audio-keyboard-response,9,64593,,,,,
20,1589724746339,17/05/2020 14:12:26,1589724747021,1,17/05/2020 15:12:27,15519,13,task-q8hp,,4988624,BLIND,1414933,,complete,,5ec1456a35f26d02248ca7f1,computer,Desktop or Laptop,Windows 10,Firefox 76.0,1280x1024,1280x1024,,main exp,56,LF,,,,,,,,,,LF,,,
21,1589724746729,17/05/2020 14:12:26,1589724747461,1,17/05/2020 15:12:27,15519,13,task-q8hp,,4988624,BLIND,1414933,,complete,,5ec1456a35f26d02248ca7f1,computer,Desktop or Laptop,Windows 10,Firefox 76.0,1280x1024,1280x1024,,main exp,56,LF,,"[""/task/70033/56/asset/b2.jpg""]",,practiceTrials,,image-keyboard-response,10,65034,,LF,"[""/task/70033/56/asset/b2.jpg""]","[""/task/70033/56/asset/LFpog.mp3""]",
22,1589724746792,17/05/2020 14:12:26,1589724747463,1,17/05/2020 15:12:27,15519,13,task-q8hp,,4988624,BLIND,1414933,,complete,,5ec1456a35f26d02248ca7f1,computer,Desktop or Laptop,Windows 10,Firefox 76.0,1280x1024,1280x1024,,main exp,56,LF,,,,,,,,,,LF,,,
23,1589724747668,17/05/2020 14:12:27,1589724748407,1,17/05/2020 15:12:28,15519,13,task-q8hp,,4988624,BLIND,1414933,,complete,,5ec1456a35f26d02248ca7f1,computer,Desktop or Laptop,Windows 10,Firefox 76.0,1280x1024,1280x1024,,main exp,56,LF,,"<div style=""font-size:60px;"">+</div>",,,,html-keyboard-response,11,65981,,,,,
24,1589724747744,17/05/2020 14:12:27,1589724748409,1,17/05/2020 15:12:28,15519,13,task-q8hp,,4988624,BLIND,1414933,,complete,,5ec1456a35f26d02248ca7f1,computer,Desktop or Laptop,Windows 10,Firefox 76.0,1280x1024,1280x1024,,main exp,56,LF,,,,,,,,,,LF,,,
25,1589724748622,17/05/2020 14:12:28,1589724749367,1,17/05/2020 15:12:29,15519,13,task-q8hp,,4988624,BLIND,1414933,,complete,,5ec1456a35f26d02248ca7f1,computer,Desktop or Laptop,Windows 10,Firefox 76.0,1280x1024,1280x1024,,main exp,56,LF,,"[""/task/70033/56/asset/LFrad.mp3""]",,,,audio-keyboard-response,12,66940,,,,,
26,1589724748685,17/05/2020 14:12:28,1589724749369,1,17/05/2020 15:12:29,15519,13,task-q8hp,,4988624,BLIND,1414933,,complete,,5ec1456a35f26d02248ca7f1,computer,Desktop or Laptop,Windows 10,Firefox 76.0,1280x1024,1280x1024,,main exp,56,LF,,,,,,,,,,LF,,,
27,1589724749074,17/05/2020 14:12:29,1589724749809,1,17/05/2020 15:12:29,15519,13,task-q8hp,,4988624,BLIND,1414933,,complete,,5ec1456a35f26d02248ca7f1,computer,Desktop or Laptop,Windows 10,Firefox 76.0,1280x1024,1280x1024,,main exp,56,LF,,"[""/task/70033/56/asset/b4.jpg""]",,practiceTrials,,image-keyboard-response,13,67383,,LF,"[""/task/70033/56/asset/b4.jpg""]","[""/task/70033/56/asset/LFrad.mp3""]",
28,1589724749121,17/05/2020 14:12:29,1589724749811,1,17/05/2020 15:12:29,15519,13,task-q8hp,,4988624,BLIND,1414933,,complete,,5ec1456a35f26d02248ca7f1,computer,Desktop or Laptop,Windows 10,Firefox 76.0,1280x1024,1280x1024,,main exp,56,LF,,,,,,,,,,LF,,,
29,1589724780247,17/05/2020 14:13:00,1589724780975,1,17/05/2020 15:13:00,15519,13,task-q8hp,,4988624,BLIND,1414933,,complete,,5ec1456a35f26d02248ca7f1,computer,Desktop or Laptop,Windows 10,Firefox 76.0,1280x1024,1280x1024,,main exp,56,LF,NA,,,instructions,,instructions,14,98549,,,,,
30,1589724780372,17/05/2020 14:13:00,1589724780977,1,17/05/2020 15:13:00,15519,13,task-q8hp,,4988624,BLIND,1414933,,complete,,5ec1456a35f26d02248ca7f1,computer,Desktop or Laptop,Windows 10,Firefox 76.0,1280x1024,1280x1024,,main exp,56,LF,,,,,,,,,,LF,,,
31,1589724782293,17/05/2020 14:13:02,1589724783016,1,17/05/2020 15:13:03,15519,13,task-q8hp,,4988624,BLIND,1414933,,complete,,5ec1456a35f26d02248ca7f1,computer,Desktop or Laptop,Windows 10,Firefox 76.0,1280x1024,1280x1024,,main exp,56,LF,-1,[39],-1,randomDot,,rdk,15,100590,,,,,
32,1589724782357,17/05/2020 14:13:02,1589724783022,1,17/05/2020 15:13:03,15519,13,task-q8hp,,4988624,BLIND,1414933,,complete,,5ec1456a35f26d02248ca7f1,computer,Desktop or Laptop,Windows 10,Firefox 76.0,1280x1024,1280x1024,,main exp,56,LF,,,,,,,,,,LF,,,
33,1589724783685,17/05/2020 14:13:03,1589724784414,1,17/05/2020 15:13:04,15519,13,task-q8hp,,4988624,BLIND,1414933,,complete,,5ec1456a35f26d02248ca7f1,computer,Desktop or Laptop,Windows 10,Firefox 76.0,1280x1024,1280x1024,,main exp,56,LF,886,[39],39,randomDot,,rdk,16,101987,1,,,,
34,1589724783746,17/05/2020 14:13:03,1589724784415,1,17/05/2020 15:13:04,15519,13,task-q8hp,,4988624,BLIND,1414933,,complete,,5ec1456a35f26d02248ca7f1,computer,Desktop or Laptop,Windows 10,Firefox 76.0,1280x1024,1280x1024,,main exp,56,LF,,,,,,,,,,LF,,,
35,1589724784904,17/05/2020 14:13:04,1589724785645,1,17/05/2020 15:13:05,15519,13,task-q8hp,,4988624,BLIND,1414933,,complete,,5ec1456a35f26d02248ca7f1,computer,Desktop or Laptop,Windows 10,Firefox 76.0,1280x1024,1280x1024,,main exp,56,LF,726,[37],37,randomDot,,rdk,17,103219,1,,,,
36,1589724784965,17/05/2020 14:13:04,1589724785647,1,17/05/2020 15:13:05,15519,13,task-q8hp,,4988624,BLIND,1414933,,complete,,5ec1456a35f26d02248ca7f1,computer,Desktop or Laptop,Windows 10,Firefox 76.0,1280x1024,1280x1024,,main exp,56,LF,,,,,,,,,,LF,,,
37,1589724786185,17/05/2020 14:13:06,1589724786912,1,17/05/2020 15:13:06,15519,13,task-q8hp,,4988624,BLIND,1414933,,complete,,5ec1456a35f26d02248ca7f1,computer,Desktop or Laptop,Windows 10,Firefox 76.0,1280x1024,1280x1024,,main exp,56,LF,760,[37],37,randomDot,,rdk,18,104485,1,,,,
38,1589724786247,17/05/2020 14:13:06,1589724786914,1,17/05/2020 15:13:06,15519,13,task-q8hp,,4988624,BLIND,1414933,,complete,,5ec1456a35f26d02248ca7f1,computer,Desktop or Laptop,Windows 10,Firefox 76.0,1280x1024,1280x1024,,main exp,56,LF,,,,,,,,,,LF,,,
39,1589724787513,17/05/2020 14:13:07,1589724788244,1,17/05/2020 15:13:08,15519,13,task-q8hp,,4988624,BLIND,1414933,,complete,,5ec1456a35f26d02248ca7f1,computer,Desktop or Laptop,Windows 10,Firefox 76.0,1280x1024,1280x1024,,main exp,56,LF,828,[37],37,randomDot,,rdk,19,105818,1,,,,
40,1589724787575,17/05/2020 14:13:07,1589724788246,1,17/05/2020 15:13:08,15519,13,task-q8hp,,4988624,BLIND,1414933,,complete,,5ec1456a35f26d02248ca7f1,computer,Desktop or Laptop,Windows 10,Firefox 76.0,1280x1024,1280x1024,,main exp,56,LF,,,,,,,,,,LF,,,
41,1589724788718,17/05/2020 14:13:08,1589724789461,1,17/05/2020 15:13:09,15519,13,task-q8hp,,4988624,BLIND,1414933,,complete,,5ec1456a35f26d02248ca7f1,computer,Desktop or Laptop,Windows 10,Firefox 76.0,1280x1024,1280x1024,,main exp,56,LF,712,[39],39,randomDot,,rdk,20,107035,1,,,,
42,1589724788780,17/05/2020 14:13:08,1589724789462,1,17/05/2020 15:13:09,15519,13,task-q8hp,,4988624,BLIND,1414933,,complete,,5ec1456a35f26d02248ca7f1,computer,Desktop or Laptop,Windows 10,Firefox 76.0,1280x1024,1280x1024,,main exp,56,LF,,,,,,,,,,LF,,,
43,1589724793949,17/05/2020 14:13:13,1589724794679,1,17/05/2020 15:13:14,15519,13,task-q8hp,,4988624,BLIND,1414933,,complete,,5ec1456a35f26d02248ca7f1,computer,Desktop or Laptop,Windows 10,Firefox 76.0,1280x1024,1280x1024,,main exp,56,LF,4714,<p>You responded correctly on 83% of the trials.</p><p>Press any key to continue the experiment!</p>,17,,,html-keyboard-response,21,112253,,,,,
44,1589724794011,17/05/2020 14:13:14,1589724794681,1,17/05/2020 15:13:14,15519,13,task-q8hp,,4988624,BLIND,1414933,,complete,,5ec1456a35f26d02248ca7f1,computer,Desktop or Laptop,Windows 10,Firefox 76.0,1280x1024,1280x1024,,main exp,56,LF,,,,,,,,,,LF,,,
45,1589724827734,17/05/2020 14:13:47,1589724828471,1,17/05/2020 15:13:48,15519,13,task-q8hp,,4988624,BLIND,1414933,,complete,,5ec1456a35f26d02248ca7f1,computer,Desktop or Laptop,Windows 10,Firefox 76.0,1280x1024,1280x1024,,main exp,56,LF,NA,,,instructions,,instructions,22,146045,,,,,
46,1589724827827,17/05/2020 14:13:47,1589724828474,1,17/05/2020 15:13:48,15519,13,task-q8hp,,4988624,BLIND,1414933,,complete,,5ec1456a35f26d02248ca7f1,computer,Desktop or Laptop,Windows 10,Firefox 76.0,1280x1024,1280x1024,,main exp,56,LF,,,,,,,,,,LF,,,
47,1589724828843,17/05/2020 14:13:48,1589724829556,1,17/05/2020 15:13:49,15519,13,task-q8hp,,4988624,BLIND,1414933,,complete,,5ec1456a35f26d02248ca7f1,computer,Desktop or Laptop,Windows 10,Firefox 76.0,1280x1024,1280x1024,,main exp,56,LF,,"<div style=""font-size:60px;"">+</div>",,,,html-keyboard-response,23,147129,,,,,
48,1589724828921,17/05/2020 14:13:48,1589724829558,1,17/05/2020 15:13:49,15519,13,task-q8hp,,4988624,BLIND,1414933,,complete,,5ec1456a35f26d02248ca7f1,computer,Desktop or Laptop,Windows 10,Firefox 76.0,1280x1024,1280x1024,,main exp,56,LF,,,,,,,,,,LF,,,
49,1589724829827,17/05/2020 14:13:49,1589724830554,1,17/05/2020 15:13:50,15519,13,task-q8hp,,4988624,BLIND,1414933,,complete,,5ec1456a35f26d02248ca7f1,computer,Desktop or Laptop,Windows 10,Firefox 76.0,1280x1024,1280x1024,,main exp,56,LF,,/task/70033/56/asset/LFtob.mp3,,,,audio-keyboard-response,24,148128,,,,,
50,1589724829890,17/05/2020 14:13:49,1589724830556,1,17/05/2020 15:13:50,15519,13,task-q8hp,,4988624,BLIND,1414933,,complete,,5ec1456a35f26d02248ca7f1,computer,Desktop or Laptop,Windows 10,Firefox 76.0,1280x1024,1280x1024,,main exp,56,LF,,,,,,,,,,LF,,,
51,1589724830266,17/05/2020 14:13:50,1589724830993,1,17/05/2020 15:13:50,15519,13,task-q8hp,,4988624,BLIND,1414933,,complete,,5ec1456a35f26d02248ca7f1,computer,Desktop or Laptop,Windows 10,Firefox 76.0,1280x1024,1280x1024,,main exp,56,LF,,/task/70033/56/asset/30525.jpg,,learningBlock1,,image-keyboard-response,25,148567,,LF,/task/70033/56/asset/30525.jpg,/task/70033/56/asset/LFtob.mp3,
52,1589724830329,17/05/2020 14:13:50,1589724830995,1,17/05/2020 15:13:50,15519,13,task-q8hp,,4988624,BLIND,1414933,,complete,,5ec1456a35f26d02248ca7f1,computer,Desktop or Laptop,Windows 10,Firefox 76.0,1280x1024,1280x1024,,main exp,56,LF,,,,,,,,,,LF,,,
53,1589724831330,17/05/2020 14:13:51,1589724832074,1,17/05/2020 15:13:52,15519,13,task-q8hp,,4988624,BLIND,1414933,,complete,,5ec1456a35f26d02248ca7f1,computer,Desktop or Laptop,Windows 10,Firefox 76.0,1280x1024,1280x1024,,main exp,56,LF,,"<div style=""font-size:60px;"">+</div>",,,,html-keyboard-response,26,149647,,,,,
54,1589724831393,17/05/2020 14:13:51,1589724832077,1,17/05/2020 15:13:52,15519,13,task-q8hp,,4988624,BLIND,1414933,,complete,,5ec1456a35f26d02248ca7f1,computer,Desktop or Laptop,Windows 10,Firefox 76.0,1280x1024,1280x1024,,main exp,56,LF,,,,,,,,,,LF,,,
55,1589724832253,17/05/2020 14:13:52,1589724832982,1,17/05/2020 15:13:52,15519,13,task-q8hp,,4988624,BLIND,1414933,,complete,,5ec1456a35f26d02248ca7f1,computer,Desktop or Laptop,Windows 10,Firefox 76.0,1280x1024,1280x1024,,main exp,56,LF,,/task/70033/56/asset/LFbim.mp3,,,,audio-keyboard-response,27,150556,,,,,
56,1589724832315,17/05/2020 14:13:52,1589724832984,1,17/05/2020 15:13:52,15519,13,task-q8hp,,4988624,BLIND,1414933,,complete,,5ec1456a35f26d02248ca7f1,computer,Desktop or Laptop,Windows 10,Firefox 76.0,1280x1024,1280x1024,,main exp,56,LF,,,,,,,,,,LF,,,
57,1589724832675,17/05/2020 14:13:52,1589724833422,1,17/05/2020 15:13:53,15519,13,task-q8hp,,4988624,BLIND,1414933,,complete,,5ec1456a35f26d02248ca7f1,computer,Desktop or Laptop,Windows 10,Firefox 76.0,1280x1024,1280x1024,,main exp,56,LF,,/task/70033/56/asset/21875.jpg,,learningBlock1,,image-keyboard-response,28,150996,,LF,/task/70033/56/asset/21875.jpg,/task/70033/56/asset/LFbim.mp3,
58,1589724832737,17/05/2020 14:13:52,1589724833424,1,17/05/2020 15:13:53,15519,13,task-q8hp,,4988624,BLIND,1414933,,complete,,5ec1456a35f26d02248ca7f1,computer,Desktop or Laptop,Windows 10,Firefox 76.0,1280x1024,1280x1024,,main exp,56,LF,,,,,,,,,,LF,,,
59,1589724833829,17/05/2020 14:13:53,1589724834503,1,17/05/2020 15:13:54,15519,13,task-q8hp,,4988624,BLIND,1414933,,complete,,5ec1456a35f26d02248ca7f1,computer,Desktop or Laptop,Windows 10,Firefox 76.0,1280x1024,1280x1024,,main exp,56,LF,,"<div style=""font-size:60px;"">+</div>",,,,html-keyboard-response,29,152077,,,,,
60,1589724833875,17/05/2020 14:13:53,1589724834505,1,17/05/2020 15:13:54,15519,13,task-q8hp,,4988624,BLIND,1414933,,complete,,5ec1456a35f26d02248ca7f1,computer,Desktop or Laptop,Windows 10,Firefox 76.0,1280x1024,1280x1024,,main exp,56,LF,,,,,,,,,,LF,,,
61,1589724834753,17/05/2020 14:13:54,1589724835492,1,17/05/2020 15:13:55,15519,13,task-q8hp,,4988624,BLIND,1414933,,complete,,5ec1456a35f26d02248ca7f1,computer,Desktop or Laptop,Windows 10,Firefox 76.0,1280x1024,1280x1024,,main exp,56,LF,,/task/70033/56/asset/LFtob.mp3,,,,audio-keyboard-response,30,153065,,,,,
62,1589724834816,17/05/2020 14:13:54,1589724835493,1,17/05/2020 15:13:55,15519,13,task-q8hp,,4988624,BLIND,1414933,,complete,,5ec1456a35f26d02248ca7f1,computer,Desktop or Laptop,Windows 10,Firefox 76.0,1280x1024,1280x1024,,main exp,56,LF,,,,,,,,,,LF,,,
63,1589724835191,17/05/2020 14:13:55,1589724835932,1,17/05/2020 15:13:55,15519,13,task-q8hp,,4988624,BLIND,1414933,,complete,,5ec1456a35f26d02248ca7f1,computer,Desktop or Laptop,Windows 10,Firefox 76.0,1280x1024,1280x1024,,main exp,56,LF,,/task/70033/56/asset/31325.jpg,,learningBlock1,,image-keyboard-response,31,153504,,LF,/task/70033/56/asset/31325.jpg,/task/70033/56/asset/LFtob.mp3,
64,1589724835253,17/05/2020 14:13:55,1589724835933,1,17/05/2020 15:13:55,15519,13,task-q8hp,,4988624,BLIND,1414933,,complete,,5ec1456a35f26d02248ca7f1,computer,Desktop or Laptop,Windows 10,Firefox 76.0,1280x1024,1280x1024,,main exp,56,LF,,,,,,,,,,LF,,,
65,1589724836271,17/05/2020 14:13:56,1589724837014,1,17/05/2020 15:13:57,15519,13,task-q8hp,,4988624,BLIND,1414933,,complete,,5ec1456a35f26d02248ca7f1,computer,Desktop or Laptop,Windows 10,Firefox 76.0,1280x1024,1280x1024,,main exp,56,LF,,"<div style=""font-size:60px;"">+</div>",,,,html-keyboard-response,32,154588,,,,,
66,1589724836427,17/05/2020 14:13:56,1589724837016,1,17/05/2020 15:13:57,15519,13,task-q8hp,,4988624,BLIND,1414933,,complete,,5ec1456a35f26d02248ca7f1,computer,Desktop or Laptop,Windows 10,Firefox 76.0,1280x1024,1280x1024,,main exp,56,LF,,,,,,,,,,LF,,,
67,1589724837182,17/05/2020 14:13:57,1589724837930,1,17/05/2020 15:13:57,15519,13,task-q8hp,,4988624,BLIND,1414933,,complete,,5ec1456a35f26d02248ca7f1,computer,Desktop or Laptop,Windows 10,Firefox 76.0,1280x1024,1280x1024,,main exp,56,LF,,/task/70033/56/asset/LFdep.mp3,,,,audio-keyboard-response,33,155504,,,,,
68,1589724837245,17/05/2020 14:13:57,1589724837931,1,17/05/2020 15:13:57,15519,13,task-q8hp,,4988624,BLIND,1414933,,complete,,5ec1456a35f26d02248ca7f1,computer,Desktop or Laptop,Windows 10,Firefox 76.0,1280x1024,1280x1024,,main exp,56,LF,,,,,,,,,,LF,,,
69,1589724837636,17/05/2020 14:13:57,1589724838370,1,17/05/2020 15:13:58,15519,13,task-q8hp,,4988624,BLIND,1414933,,complete,,5ec1456a35f26d02248ca7f1,computer,Desktop or Laptop,Windows 10,Firefox 76.0,1280x1024,1280x1024,,main exp,56,LF,,/task/70033/56/asset/10875.jpg,,learningBlock1,,image-keyboard-response,34,155944,,LF,/task/70033/56/asset/10875.jpg,/task/70033/56/asset/LFdep.mp3,
70,1589724837698,17/05/2020 14:13:57,1589724838371,1,17/05/2020 15:13:58,15519,13,task-q8hp,,4988624,BLIND,1414933,,complete,,5ec1456a35f26d02248ca7f1,computer,Desktop or Laptop,Windows 10,Firefox 76.0,1280x1024,1280x1024,,main exp,56,LF,,,,,,,,,,LF,,,
71,1589724838714,17/05/2020 14:13:58,1589724839451,1,17/05/2020 15:13:59,15519,13,task-q8hp,,4988624,BLIND,1414933,,complete,,5ec1456a35f26d02248ca7f1,computer,Desktop or Laptop,Windows 10,Firefox 76.0,1280x1024,1280x1024,,main exp,56,LF,,"<div style=""font-size:60px;"">+</div>",,,,html-keyboard-response,35,157025,,,,,
72,1589724838777,17/05/2020 14:13:58,1589724839453,1,17/05/2020 15:13:59,15519,13,task-q8hp,,4988624,BLIND,1414933,,complete,,5ec1456a35f26d02248ca7f1,computer,Desktop or Laptop,Windows 10,Firefox 76.0,1280x1024,1280x1024,,main exp,56,LF,,,,,,,,,,LF,,,
73,1589724839635,17/05/2020 14:13:59,1589724840368,1,17/05/2020 15:14:00,15519,13,task-q8hp,,4988624,BLIND,1414933,,complete,,5ec1456a35f26d02248ca7f1,computer,Desktop or Laptop,Windows 10,Firefox 76.0,1280x1024,1280x1024,,main exp,56,LF,,/task/70033/56/asset/LFbim.mp3,,,,audio-keyboard-response,36,157941,,,,,
74,1589724839698,17/05/2020 14:13:59,1589724840368,1,17/05/2020 15:14:00,15519,13,task-q8hp,,4988624,BLIND,1414933,,complete,,5ec1456a35f26d02248ca7f1,computer,Desktop or Laptop,Windows 10,Firefox 76.0,1280x1024,1280x1024,,main exp,56,LF,,,,,,,,,,LF,,,
75,1589724840076,17/05/2020 14:14:00,1589724840808,1,17/05/2020 15:14:00,15519,13,task-q8hp,,4988624,BLIND,1414933,,complete,,5ec1456a35f26d02248ca7f1,computer,Desktop or Laptop,Windows 10,Firefox 76.0,1280x1024,1280x1024,,main exp,56,LF,,/task/70033/56/asset/22025.jpg,,learningBlock1,,image-keyboard-response,37,158382,,LF,/task/70033/56/asset/22025.jpg,/task/70033/56/asset/LFbim.mp3,
76,1589724840141,17/05/2020 14:14:00,1589724840810,1,17/05/2020 15:14:00,15519,13,task-q8hp,,4988624,BLIND,1414933,,complete,,5ec1456a35f26d02248ca7f1,computer,Desktop or Laptop,Windows 10,Firefox 76.0,1280x1024,1280x1024,,main exp,56,LF,,,,,,,,,,LF,,,
77,1589724841142,17/05/2020 14:14:01,1589724841889,1,17/05/2020 15:14:01,15519,13,task-q8hp,,4988624,BLIND,1414933,,complete,,5ec1456a35f26d02248ca7f1,computer,Desktop or Laptop,Windows 10,Firefox 76.0,1280x1024,1280x1024,,main exp,56,LF,,"<div style=""font-size:60px;"">+</div>",,,,html-keyboard-response,38,159463,,,,,
78,1589724841204,17/05/2020 14:14:01,1589724841890,1,17/05/2020 15:14:01,15519,13,task-q8hp,,4988624,BLIND,1414933,,complete,,5ec1456a35f26d02248ca7f1,computer,Desktop or Laptop,Windows 10,Firefox 76.0,1280x1024,1280x1024,,main exp,56,LF,,,,,,,,,,LF,,,
79,1589724842146,17/05/2020 14:14:02,1589724842877,1,17/05/2020 15:14:02,15519,13,task-q8hp,,4988624,BLIND,1414933,,complete,,5ec1456a35f26d02248ca7f1,computer,Desktop or Laptop,Windows 10,Firefox 76.0,1280x1024,1280x1024,,main exp,56,LF,,/task/70033/56/asset/LFtob.mp3,,,,audio-keyboard-response,39,160451,,,,,
80,1589724842208,17/05/2020 14:14:02,1589724842878,1,17/05/2020 15:14:02,15519,13,task-q8hp,,4988624,BLIND,1414933,,complete,,5ec1456a35f26d02248ca7f1,computer,Desktop or Laptop,Windows 10,Firefox 76.0,1280x1024,1280x1024,,main exp,56,LF,,,,,,,,,,LF,,,
81,1589724842586,17/05/2020 14:14:02,1589724843316,1,17/05/2020 15:14:03,15519,13,task-q8hp,,4988624,BLIND,1414933,,complete,,5ec1456a35f26d02248ca7f1,computer,Desktop or Laptop,Windows 10,Firefox 76.0,1280x1024,1280x1024,,main exp,56,LF,,/task/70033/56/asset/30525.jpg,,learningBlock1,,image-keyboard-response,40,160890,,LF,/task/70033/56/asset/30525.jpg,/task/70033/56/asset/LFtob.mp3,
82,1589724842648,17/05/2020 14:14:02,1589724843317,1,17/05/2020 15:14:03,15519,13,task-q8hp,,4988624,BLIND,1414933,,complete,,5ec1456a35f26d02248ca7f1,computer,Desktop or Laptop,Windows 10,Firefox 76.0,1280x1024,1280x1024,,main exp,56,LF,,,,,,,,,,LF,,,
83,1589724843667,17/05/2020 14:14:03,1589724844396,1,17/05/2020 15:14:04,15519,13,task-q8hp,,4988624,BLIND,1414933,,complete,,5ec1456a35f26d02248ca7f1,computer,Desktop or Laptop,Windows 10,Firefox 76.0,1280x1024,1280x1024,,main exp,56,LF,,"<div style=""font-size:60px;"">+</div>",,,,html-keyboard-response,41,161970,,,,,
84,1589724843714,17/05/2020 14:14:03,1589724844399,1,17/05/2020 15:14:04,15519,13,task-q8hp,,4988624,BLIND,1414933,,complete,,5ec1456a35f26d02248ca7f1,computer,Desktop or Laptop,Windows 10,Firefox 76.0,1280x1024,1280x1024,,main exp,56,LF,,,,,,,,,,LF,,,
85,1589724844574,17/05/2020 14:14:04,1589724845305,1,17/05/2020 15:14:05,15519,13,task-q8hp,,4988624,BLIND,1414933,,complete,,5ec1456a35f26d02248ca7f1,computer,Desktop or Laptop,Windows 10,Firefox 76.0,1280x1024,1280x1024,,main exp,56,LF,,/task/70033/56/asset/LFbim.mp3,,,,audio-keyboard-response,42,162878,,,,,
86,1589724844637,17/05/2020 14:14:04,1589724845310,1,17/05/2020 15:14:05,15519,13,task-q8hp,,4988624,BLIND,1414933,,complete,,5ec1456a35f26d02248ca7f1,computer,Desktop or Laptop,Windows 10,Firefox 76.0,1280x1024,1280x1024,,main exp,56,LF,,,,,,,,,,LF,,,
87,1589724845011,17/05/2020 14:14:05,1589724845748,1,17/05/2020 15:14:05,15519,13,task-q8hp,,4988624,BLIND,1414933,,complete,,5ec1456a35f26d02248ca7f1,computer,Desktop or Laptop,Windows 10,Firefox 76.0,1280x1024,1280x1024,,main exp,56,LF,,/task/70033/56/asset/23175.jpg,,learningBlock1,,image-keyboard-response,43,163322,,LF,/task/70033/56/asset/23175.jpg,/task/70033/56/asset/LFbim.mp3,
88,1589724845074,17/05/2020 14:14:05,1589724845749,1,17/05/2020 15:14:05,15519,13,task-q8hp,,4988624,BLIND,1414933,,complete,,5ec1456a35f26d02248ca7f1,computer,Desktop or Laptop,Windows 10,Firefox 76.0,1280x1024,1280x1024,,main exp,56,LF,,,,,,,,,,LF,,,
89,1589724846098,17/05/2020 14:14:06,1589724846829,1,17/05/2020 15:14:06,15519,13,task-q8hp,,4988624,BLIND,1414933,,complete,,5ec1456a35f26d02248ca7f1,computer,Desktop or Laptop,Windows 10,Firefox 76.0,1280x1024,1280x1024,,main exp,56,LF,,"<div style=""font-size:60px;"">+</div>",,,,html-keyboard-response,44,164403,,,,,
90,1589724846176,17/05/2020 14:14:06,1589724846831,1,17/05/2020 15:14:06,15519,13,task-q8hp,,4988624,BLIND,1414933,,complete,,5ec1456a35f26d02248ca7f1,computer,Desktop or Laptop,Windows 10,Firefox 76.0,1280x1024,1280x1024,,main exp,56,LF,,,,,,,,,,LF,,,
91,1589724847005,17/05/2020 14:14:07,1589724847742,1,17/05/2020 15:14:07,15519,13,task-q8hp,,4988624,BLIND,1414933,,complete,,5ec1456a35f26d02248ca7f1,computer,Desktop or Laptop,Windows 10,Firefox 76.0,1280x1024,1280x1024,,main exp,56,LF,,/task/70033/56/asset/LFbim.mp3,,,,audio-keyboard-response,45,165316,,,,,
92,1589724847067,17/05/2020 14:14:07,1589724847744,1,17/05/2020 15:14:07,15519,13,task-q8hp,,4988624,BLIND,1414933,,complete,,5ec1456a35f26d02248ca7f1,computer,Desktop or Laptop,Windows 10,Firefox 76.0,1280x1024,1280x1024,,main exp,56,LF,,,,,,,,,,LF,,,
93,1589724847442,17/05/2020 14:14:07,1589724848183,1,17/05/2020 15:14:08,15519,13,task-q8hp,,4988624,BLIND,1414933,,complete,,5ec1456a35f26d02248ca7f1,computer,Desktop or Laptop,Windows 10,Firefox 76.0,1280x1024,1280x1024,,main exp,56,LF,,/task/70033/56/asset/22275.jpg,,learningBlock1,,image-keyboard-response,46,165756,,LF,/task/70033/56/asset/22275.jpg,/task/70033/56/asset/LFbim.mp3,
94,1589724847489,17/05/2020 14:14:07,1589724848184,1,17/05/2020 15:14:08,15519,13,task-q8hp,,4988624,BLIND,1414933,,complete,,5ec1456a35f26d02248ca7f1,computer,Desktop or Laptop,Windows 10,Firefox 76.0,1280x1024,1280x1024,,main exp,56,LF,,,,,,,,,,LF,,,
95,1589724848523,17/05/2020 14:14:08,1589724849264,1,17/05/2020 15:14:09,15519,13,task-q8hp,,4988624,BLIND,1414933,,complete,,5ec1456a35f26d02248ca7f1,computer,Desktop or Laptop,Windows 10,Firefox 76.0,1280x1024,1280x1024,,main exp,56,LF,,"<div style=""font-size:60px;"">+</div>",,,,html-keyboard-response,47,166838,,,,,
96,1589724848585,17/05/2020 14:14:08,1589724849265,1,17/05/2020 15:14:09,15519,13,task-q8hp,,4988624,BLIND,1414933,,complete,,5ec1456a35f26d02248ca7f1,computer,Desktop or Laptop,Windows 10,Firefox 76.0,1280x1024,1280x1024,,main exp,56,LF,,,,,,,,,,LF,,,
97,1589724849523,17/05/2020 14:14:09,1589724850252,1,17/05/2020 15:14:10,15519,13,task-q8hp,,4988624,BLIND,1414933,,complete,,5ec1456a35f26d02248ca7f1,computer,Desktop or Laptop,Windows 10,Firefox 76.0,1280x1024,1280x1024,,main exp,56,LF,,/task/70033/56/asset/LFtob.mp3,,,,audio-keyboard-response,48,167826,,,,,
98,1589724849585,17/05/2020 14:14:09,1589724850254,1,17/05/2020 15:14:10,15519,13,task-q8hp,,4988624,BLIND,1414933,,complete,,5ec1456a35f26d02248ca7f1,computer,Desktop or Laptop,Windows 10,Firefox 76.0,1280x1024,1280x1024,,main exp,56,LF,,,,,,,,,,LF,,,
99,1589724849960,17/05/2020 14:14:09,1589724850691,1,17/05/2020 15:14:10,15519,13,task-q8hp,,4988624,BLIND,1414933,,complete,,5ec1456a35f26d02248ca7f1,computer,Desktop or Laptop,Windows 10,Firefox 76.0,1280x1024,1280x1024,,main exp,56,LF,,/task/70033/56/asset/31425.jpg,,learningBlock1,,image-keyboard-response,49,168265,,LF,/task/70033/56/asset/31425.jpg,/task/70033/56/asset/LFtob.mp3,
100,1589724850023,17/05/2020 14:14:10,1589724850693,1,17/05/2020 15:14:10,15519,13,task-q8hp,,4988624,BLIND,1414933,,complete,,5ec1456a35f26d02248ca7f1,computer,Desktop or Laptop,Windows 10,Firefox 76.0,1280x1024,1280x1024,,main exp,56,LF,,,,,,,,,,LF,,,
101,1589724851033,17/05/2020 14:14:11,1589724851772,1,17/05/2020 15:14:11,15519,13,task-q8hp,,4988624,BLIND,1414933,,complete,,5ec1456a35f26d02248ca7f1,computer,Desktop or Laptop,Windows 10,Firefox 76.0,1280x1024,1280x1024,,main exp,56,LF,,"<div style=""font-size:60px;"">+</div>",,,,html-keyboard-response,50,169345,,,,,
102,1589724851095,17/05/2020 14:14:11,1589724851773,1,17/05/2020 15:14:11,15519,13,task-q8hp,,4988624,BLIND,1414933,,complete,,5ec1456a35f26d02248ca7f1,computer,Desktop or Laptop,Windows 10,Firefox 76.0,1280x1024,1280x1024,,main exp,56,LF,,,,,,,,,,LF,,,
103,1589724852023,17/05/2020 14:14:12,1589724852761,1,17/05/2020 15:14:12,15519,13,task-q8hp,,4988624,BLIND,1414933,,complete,,5ec1456a35f26d02248ca7f1,computer,Desktop or Laptop,Windows 10,Firefox 76.0,1280x1024,1280x1024,,main exp,56,LF,,/task/70033/56/asset/LFtob.mp3,,,,audio-keyboard-response,51,170335,,,,,
104,1589724852086,17/05/2020 14:14:12,1589724852762,1,17/05/2020 15:14:12,15519,13,task-q8hp,,4988624,BLIND,1414933,,complete,,5ec1456a35f26d02248ca7f1,computer,Desktop or Laptop,Windows 10,Firefox 76.0,1280x1024,1280x1024,,main exp,56,LF,,,,,,,,,,LF,,,
105,1589724852461,17/05/2020 14:14:12,1589724853201,1,17/05/2020 15:14:13,15519,13,task-q8hp,,4988624,BLIND,1414933,,complete,,5ec1456a35f26d02248ca7f1,computer,Desktop or Laptop,Windows 10,Firefox 76.0,1280x1024,1280x1024,,main exp,56,LF,,/task/70033/56/asset/32075.jpg,,learningBlock1,,image-keyboard-response,52,170775,,LF,/task/70033/56/asset/32075.jpg,/task/70033/56/asset/LFtob.mp3,
106,1589724852523,17/05/2020 14:14:12,1589724853203,1,17/05/2020 15:14:13,15519,13,task-q8hp,,4988624,BLIND,1414933,,complete,,5ec1456a35f26d02248ca7f1,computer,Desktop or Laptop,Windows 10,Firefox 76.0,1280x1024,1280x1024,,main exp,56,LF,,,,,,,,,,LF,,,
107,1589724853546,17/05/2020 14:14:13,1589724854283,1,17/05/2020 15:14:14,15519,13,task-q8hp,,4988624,BLIND,1414933,,complete,,5ec1456a35f26d02248ca7f1,computer,Desktop or Laptop,Windows 10,Firefox 76.0,1280x1024,1280x1024,,main exp,56,LF,,"<div style=""font-size:60px;"">+</div>",,,,html-keyboard-response,53,171857,,,,,
108,1589724853608,17/05/2020 14:14:13,1589724854285,1,17/05/2020 15:14:14,15519,13,task-q8hp,,4988624,BLIND,1414933,,complete,,5ec1456a35f26d02248ca7f1,computer,Desktop or Laptop,Windows 10,Firefox 76.0,1280x1024,1280x1024,,main exp,56,LF,,,,,,,,,,LF,,,
109,1589724854458,17/05/2020 14:14:14,1589724855199,1,17/05/2020 15:14:15,15519,13,task-q8hp,,4988624,BLIND,1414933,,complete,,5ec1456a35f26d02248ca7f1,computer,Desktop or Laptop,Windows 10,Firefox 76.0,1280x1024,1280x1024,,main exp,56,LF,,/task/70033/56/asset/LFbim.mp3,,,,audio-keyboard-response,54,172773,,,,,
110,1589724854536,17/05/2020 14:14:14,1589724855200,1,17/05/2020 15:14:15,15519,13,task-q8hp,,4988624,BLIND,1414933,,complete,,5ec1456a35f26d02248ca7f1,computer,Desktop or Laptop,Windows 10,Firefox 76.0,1280x1024,1280x1024,,main exp,56,LF,,,,,,,,,,LF,,,
111,1589724854895,17/05/2020 14:14:14,1589724855638,1,17/05/2020 15:14:15,15519,13,task-q8hp,,4988624,BLIND,1414933,,complete,,5ec1456a35f26d02248ca7f1,computer,Desktop or Laptop,Windows 10,Firefox 76.0,1280x1024,1280x1024,,main exp,56,LF,,/task/70033/56/asset/23175.jpg,,learningBlock1,,image-keyboard-response,55,173212,,LF,/task/70033/56/asset/23175.jpg,/task/70033/56/asset/LFbim.mp3,
112,1589724854958,17/05/2020 14:14:14,1589724855639,1,17/05/2020 15:14:15,15519,13,task-q8hp,,4988624,BLIND,1414933,,complete,,5ec1456a35f26d02248ca7f1,computer,Desktop or Laptop,Windows 10,Firefox 76.0,1280x1024,1280x1024,,main exp,56,LF,,,,,,,,,,LF,,,
113,1589724855989,17/05/2020 14:14:15,1589724856718,1,17/05/2020 15:14:16,15519,13,task-q8hp,,4988624,BLIND,1414933,,complete,,5ec1456a35f26d02248ca7f1,computer,Desktop or Laptop,Windows 10,Firefox 76.0,1280x1024,1280x1024,,main exp,56,LF,,"<div style=""font-size:60px;"">+</div>",,,,html-keyboard-response,56,174292,,,,,
114,1589724856051,17/05/2020 14:14:16,1589724856719,1,17/05/2020 15:14:16,15519,13,task-q8hp,,4988624,BLIND,1414933,,complete,,5ec1456a35f26d02248ca7f1,computer,Desktop or Laptop,Windows 10,Firefox 76.0,1280x1024,1280x1024,,main exp,56,LF,,,,,,,,,,LF,,,
115,1589724856895,17/05/2020 14:14:16,1589724857627,1,17/05/2020 15:14:17,15519,13,task-q8hp,,4988624,BLIND,1414933,,complete,,5ec1456a35f26d02248ca7f1,computer,Desktop or Laptop,Windows 10,Firefox 76.0,1280x1024,1280x1024,,main exp,56,LF,,/task/70033/56/asset/LFbim.mp3,,,,audio-keyboard-response,57,175201,,,,,
116,1589724856973,17/05/2020 14:14:16,1589724857629,1,17/05/2020 15:14:17,15519,13,task-q8hp,,4988624,BLIND,1414933,,complete,,5ec1456a35f26d02248ca7f1,computer,Desktop or Laptop,Windows 10,Firefox 76.0,1280x1024,1280x1024,,main exp,56,LF,,,,,,,,,,LF,,,
117,1589724857333,17/05/2020 14:14:17,1589724858065,1,17/05/2020 15:14:18,15519,13,task-q8hp,,4988624,BLIND,1414933,,complete,,5ec1456a35f26d02248ca7f1,computer,Desktop or Laptop,Windows 10,Firefox 76.0,1280x1024,1280x1024,,main exp,56,LF,,/task/70033/56/asset/21775.jpg,,learningBlock1,,image-keyboard-response,58,175639,,LF,/task/70033/56/asset/21775.jpg,/task/70033/56/asset/LFbim.mp3,
118,1589724857395,17/05/2020 14:14:17,1589724858067,1,17/05/2020 15:14:18,15519,13,task-q8hp,,4988624,BLIND,1414933,,complete,,5ec1456a35f26d02248ca7f1,computer,Desktop or Laptop,Windows 10,Firefox 76.0,1280x1024,1280x1024,,main exp,56,LF,,,,,,,,,,LF,,,
119,1589724858411,17/05/2020 14:14:18,1589724859147,1,17/05/2020 15:14:19,15519,13,task-q8hp,,4988624,BLIND,1414933,,complete,,5ec1456a35f26d02248ca7f1,computer,Desktop or Laptop,Windows 10,Firefox 76.0,1280x1024,1280x1024,,main exp,56,LF,,"<div style=""font-size:60px;"">+</div>",,,,html-keyboard-response,59,176721,,,,,
120,1589724858473,17/05/2020 14:14:18,1589724859148,1,17/05/2020 15:14:19,15519,13,task-q8hp,,4988624,BLIND,1414933,,complete,,5ec1456a35f26d02248ca7f1,computer,Desktop or Laptop,Windows 10,Firefox 76.0,1280x1024,1280x1024,,main exp,56,LF,,,,,,,,,,LF,,,
121,1589724859317,17/05/2020 14:14:19,1589724860056,1,17/05/2020 15:14:20,15519,13,task-q8hp,,4988624,BLIND,1414933,,complete,,5ec1456a35f26d02248ca7f1,computer,Desktop or Laptop,Windows 10,Firefox 76.0,1280x1024,1280x1024,,main exp,56,LF,,/task/70033/56/asset/LFbim.mp3,,,,audio-keyboard-response,60,177629,,,,,
122,1589724859380,17/05/2020 14:14:19,1589724860057,1,17/05/2020 15:14:20,15519,13,task-q8hp,,4988624,BLIND,1414933,,complete,,5ec1456a35f26d02248ca7f1,computer,Desktop or Laptop,Windows 10,Firefox 76.0,1280x1024,1280x1024,,main exp,56,LF,,,,,,,,,,LF,,,
123,1589724859755,17/05/2020 14:14:19,1589724860494,1,17/05/2020 15:14:20,15519,13,task-q8hp,,4988624,BLIND,1414933,,complete,,5ec1456a35f26d02248ca7f1,computer,Desktop or Laptop,Windows 10,Firefox 76.0,1280x1024,1280x1024,,main exp,56,LF,,/task/70033/56/asset/23275.jpg,,learningBlock1,,image-keyboard-response,61,178068,,LF,/task/70033/56/asset/23275.jpg,/task/70033/56/asset/LFbim.mp3,
124,1589724859992,17/05/2020 14:14:19,1589724860495,1,17/05/2020 15:14:20,15519,13,task-q8hp,,4988624,BLIND,1414933,,complete,,5ec1456a35f26d02248ca7f1,computer,Desktop or Laptop,Windows 10,Firefox 76.0,1280x1024,1280x1024,,main exp,56,LF,,,,,,,,,,LF,,,
125,1589724860833,17/05/2020 14:14:20,1589724861575,1,17/05/2020 15:14:21,15519,13,task-q8hp,,4988624,BLIND,1414933,,complete,,5ec1456a35f26d02248ca7f1,computer,Desktop or Laptop,Windows 10,Firefox 76.0,1280x1024,1280x1024,,main exp,56,LF,,"<div style=""font-size:60px;"">+</div>",,,,html-keyboard-response,62,179149,,,,,
126,1589724860895,17/05/2020 14:14:20,1589724861578,1,17/05/2020 15:14:21,15519,13,task-q8hp,,4988624,BLIND,1414933,,complete,,5ec1456a35f26d02248ca7f1,computer,Desktop or Laptop,Windows 10,Firefox 76.0,1280x1024,1280x1024,,main exp,56,LF,,,,,,,,,,LF,,,
127,1589724861837,17/05/2020 14:14:21,1589724862564,1,17/05/2020 15:14:22,15519,13,task-q8hp,,4988624,BLIND,1414933,,complete,,5ec1456a35f26d02248ca7f1,computer,Desktop or Laptop,Windows 10,Firefox 76.0,1280x1024,1280x1024,,main exp,56,LF,,/task/70033/56/asset/LFtob.mp3,,,,audio-keyboard-response,63,180138,,,,,
128,1589724861915,17/05/2020 14:14:21,1589724862565,1,17/05/2020 15:14:22,15519,13,task-q8hp,,4988624,BLIND,1414933,,complete,,5ec1456a35f26d02248ca7f1,computer,Desktop or Laptop,Windows 10,Firefox 76.0,1280x1024,1280x1024,,main exp,56,LF,,,,,,,,,,LF,,,
129,1589724862275,17/05/2020 14:14:22,1589724863005,1,17/05/2020 15:14:23,15519,13,task-q8hp,,4988624,BLIND,1414933,,complete,,5ec1456a35f26d02248ca7f1,computer,Desktop or Laptop,Windows 10,Firefox 76.0,1280x1024,1280x1024,,main exp,56,LF,,/task/70033/56/asset/33275.jpg,,learningBlock1,,image-keyboard-response,64,180578,,LF,/task/70033/56/asset/33275.jpg,/task/70033/56/asset/LFtob.mp3,
130,1589724862337,17/05/2020 14:14:22,1589724863006,1,17/05/2020 15:14:23,15519,13,task-q8hp,,4988624,BLIND,1414933,,complete,,5ec1456a35f26d02248ca7f1,computer,Desktop or Laptop,Windows 10,Firefox 76.0,1280x1024,1280x1024,,main exp,56,LF,,,,,,,,,,LF,,,
131,1589724863337,17/05/2020 14:14:23,1589724864086,1,17/05/2020 15:14:24,15519,13,task-q8hp,,4988624,BLIND,1414933,,complete,,5ec1456a35f26d02248ca7f1,computer,Desktop or Laptop,Windows 10,Firefox 76.0,1280x1024,1280x1024,,main exp,56,LF,,"<div style=""font-size:60px;"">+</div>",,,,html-keyboard-response,65,181659,,,,,
132,1589724863415,17/05/2020 14:14:23,1589724864087,1,17/05/2020 15:14:24,15519,13,task-q8hp,,4988624,BLIND,1414933,,complete,,5ec1456a35f26d02248ca7f1,computer,Desktop or Laptop,Windows 10,Firefox 76.0,1280x1024,1280x1024,,main exp,56,LF,,,,,,,,,,LF,,,
133,1589724864377,17/05/2020 14:14:24,1589724865074,1,17/05/2020 15:14:25,15519,13,task-q8hp,,4988624,BLIND,1414933,,complete,,5ec1456a35f26d02248ca7f1,computer,Desktop or Laptop,Windows 10,Firefox 76.0,1280x1024,1280x1024,,main exp,56,LF,,,,,,,,,,LF,,,
134,1589724864330,17/05/2020 14:14:24,1589724865074,1,17/05/2020 15:14:25,15519,13,task-q8hp,,4988624,BLIND,1414933,,complete,,5ec1456a35f26d02248ca7f1,computer,Desktop or Laptop,Windows 10,Firefox 76.0,1280x1024,1280x1024,,main exp,56,LF,,/task/70033/56/asset/LFtob.mp3,,,,audio-keyboard-response,66,182647,,,,,
135,1589724864768,17/05/2020 14:14:24,1589724865514,1,17/05/2020 15:14:25,15519,13,task-q8hp,,4988624,BLIND,1414933,,complete,,5ec1456a35f26d02248ca7f1,computer,Desktop or Laptop,Windows 10,Firefox 76.0,1280x1024,1280x1024,,main exp,56,LF,,/task/70033/56/asset/30575.jpg,,learningBlock1,,image-keyboard-response,67,183087,,LF,/task/70033/56/asset/30575.jpg,/task/70033/56/asset/LFtob.mp3,
136,1589724864830,17/05/2020 14:14:24,1589724865515,1,17/05/2020 15:14:25,15519,13,task-q8hp,,4988624,BLIND,1414933,,complete,,5ec1456a35f26d02248ca7f1,computer,Desktop or Laptop,Windows 10,Firefox 76.0,1280x1024,1280x1024,,main exp,56,LF,,,,,,,,,,LF,,,
137,1589724865861,17/05/2020 14:14:25,1589724866595,1,17/05/2020 15:14:26,15519,13,task-q8hp,,4988624,BLIND,1414933,,complete,,5ec1456a35f26d02248ca7f1,computer,Desktop or Laptop,Windows 10,Firefox 76.0,1280x1024,1280x1024,,main exp,56,LF,,"<div style=""font-size:60px;"">+</div>",,,,html-keyboard-response,68,184169,,,,,
138,1589724865924,17/05/2020 14:14:25,1589724866597,1,17/05/2020 15:14:26,15519,13,task-q8hp,,4988624,BLIND,1414933,,complete,,5ec1456a35f26d02248ca7f1,computer,Desktop or Laptop,Windows 10,Firefox 76.0,1280x1024,1280x1024,,main exp,56,LF,,,,,,,,,,LF,,,
139,1589724866768,17/05/2020 14:14:26,1589724867512,1,17/05/2020 15:14:27,15519,13,task-q8hp,,4988624,BLIND,1414933,,complete,,5ec1456a35f26d02248ca7f1,computer,Desktop or Laptop,Windows 10,Firefox 76.0,1280x1024,1280x1024,,main exp,56,LF,,/task/70033/56/asset/LFbim.mp3,,,,audio-keyboard-response,69,185086,,,,,
140,1589724866846,17/05/2020 14:14:26,1589724867513,1,17/05/2020 15:14:27,15519,13,task-q8hp,,4988624,BLIND,1414933,,complete,,5ec1456a35f26d02248ca7f1,computer,Desktop or Laptop,Windows 10,Firefox 76.0,1280x1024,1280x1024,,main exp,56,LF,,,,,,,,,,LF,,,
141,1589724867205,17/05/2020 14:14:27,1589724867951,1,17/05/2020 15:14:27,15519,13,task-q8hp,,4988624,BLIND,1414933,,complete,,5ec1456a35f26d02248ca7f1,computer,Desktop or Laptop,Windows 10,Firefox 76.0,1280x1024,1280x1024,,main exp,56,LF,,/task/70033/56/asset/21775.jpg,,learningBlock1,,image-keyboard-response,70,185525,,LF,/task/70033/56/asset/21775.jpg,/task/70033/56/asset/LFbim.mp3,
142,1589724867259,17/05/2020 14:14:27,1589724867952,1,17/05/2020 15:14:27,15519,13,task-q8hp,,4988624,BLIND,1414933,,complete,,5ec1456a35f26d02248ca7f1,computer,Desktop or Laptop,Windows 10,Firefox 76.0,1280x1024,1280x1024,,main exp,56,LF,,,,,,,,,,LF,,,
143,1589724868305,17/05/2020 14:14:28,1589724869039,1,17/05/2020 15:14:29,15519,13,task-q8hp,,4988624,BLIND,1414933,,complete,,5ec1456a35f26d02248ca7f1,computer,Desktop or Laptop,Windows 10,Firefox 76.0,1280x1024,1280x1024,,main exp,56,LF,,"<div style=""font-size:60px;"">+</div>",,,,html-keyboard-response,71,186613,,,,,
144,1589724868374,17/05/2020 14:14:28,1589724869041,1,17/05/2020 15:14:29,15519,13,task-q8hp,,4988624,BLIND,1414933,,complete,,5ec1456a35f26d02248ca7f1,computer,Desktop or Laptop,Windows 10,Firefox 76.0,1280x1024,1280x1024,,main exp,56,LF,,,,,,,,,,LF,,,
145,1589724869317,17/05/2020 14:14:29,1589724869950,1,17/05/2020 15:14:29,15519,13,task-q8hp,,4988624,BLIND,1414933,,complete,,5ec1456a35f26d02248ca7f1,computer,Desktop or Laptop,Windows 10,Firefox 76.0,1280x1024,1280x1024,,main exp,56,LF,,/task/70033/56/asset/LFbim.mp3,,,,audio-keyboard-response,72,187524,,,,,
146,1589724869380,17/05/2020 14:14:29,1589724869951,1,17/05/2020 15:14:29,15519,13,task-q8hp,,4988624,BLIND,1414933,,complete,,5ec1456a35f26d02248ca7f1,computer,Desktop or Laptop,Windows 10,Firefox 76.0,1280x1024,1280x1024,,main exp,56,LF,,,,,,,,,,LF,,,
147,1589724869646,17/05/2020 14:14:29,1589724870387,1,17/05/2020 15:14:30,15519,13,task-q8hp,,4988624,BLIND,1414933,,complete,,5ec1456a35f26d02248ca7f1,computer,Desktop or Laptop,Windows 10,Firefox 76.0,1280x1024,1280x1024,,main exp,56,LF,,/task/70033/56/asset/22275.jpg,,learningBlock1,,image-keyboard-response,73,187961,,LF,/task/70033/56/asset/22275.jpg,/task/70033/56/asset/LFbim.mp3,
148,1589724869708,17/05/2020 14:14:29,1589724870389,1,17/05/2020 15:14:30,15519,13,task-q8hp,,4988624,BLIND,1414933,,complete,,5ec1456a35f26d02248ca7f1,computer,Desktop or Laptop,Windows 10,Firefox 76.0,1280x1024,1280x1024,,main exp,56,LF,,,,,,,,,,LF,,,
149,1589724870726,17/05/2020 14:14:30,1589724871468,1,17/05/2020 15:14:31,15519,13,task-q8hp,,4988624,BLIND,1414933,,complete,,5ec1456a35f26d02248ca7f1,computer,Desktop or Laptop,Windows 10,Firefox 76.0,1280x1024,1280x1024,,main exp,56,LF,,"<div style=""font-size:60px;"">+</div>",,,,html-keyboard-response,74,189042,,,,,
150,1589724870773,17/05/2020 14:14:30,1589724871469,1,17/05/2020 15:14:31,15519,13,task-q8hp,,4988624,BLIND,1414933,,complete,,5ec1456a35f26d02248ca7f1,computer,Desktop or Laptop,Windows 10,Firefox 76.0,1280x1024,1280x1024,,main exp,56,LF,,,,,,,,,,LF,,,
151,1589724871632,17/05/2020 14:14:31,1589724872377,1,17/05/2020 15:14:32,15519,13,task-q8hp,,4988624,BLIND,1414933,,complete,,5ec1456a35f26d02248ca7f1,computer,Desktop or Laptop,Windows 10,Firefox 76.0,1280x1024,1280x1024,,main exp,56,LF,,/task/70033/56/asset/LFbim.mp3,,,,audio-keyboard-response,75,189951,,,,,
152,1589724871695,17/05/2020 14:14:31,1589724872379,1,17/05/2020 15:14:32,15519,13,task-q8hp,,4988624,BLIND,1414933,,complete,,5ec1456a35f26d02248ca7f1,computer,Desktop or Laptop,Windows 10,Firefox 76.0,1280x1024,1280x1024,,main exp,56,LF,,,,,,,,,,LF,,,
153,1589724872076,17/05/2020 14:14:32,1589724872815,1,17/05/2020 15:14:32,15519,13,task-q8hp,,4988624,BLIND,1414933,,complete,,5ec1456a35f26d02248ca7f1,computer,Desktop or Laptop,Windows 10,Firefox 76.0,1280x1024,1280x1024,,main exp,56,LF,,/task/70033/56/asset/22675.jpg,,learningBlock1,,image-keyboard-response,76,190389,,LF,/task/70033/56/asset/22675.jpg,/task/70033/56/asset/LFbim.mp3,
154,1589724872139,17/05/2020 14:14:32,1589724872817,1,17/05/2020 15:14:32,15519,13,task-q8hp,,4988624,BLIND,1414933,,complete,,5ec1456a35f26d02248ca7f1,computer,Desktop or Laptop,Windows 10,Firefox 76.0,1280x1024,1280x1024,,main exp,56,LF,,,,,,,,,,LF,,,
155,1589724873147,17/05/2020 14:14:33,1589724873895,1,17/05/2020 15:14:33,15519,13,task-q8hp,,4988624,BLIND,1414933,,complete,,5ec1456a35f26d02248ca7f1,computer,Desktop or Laptop,Windows 10,Firefox 76.0,1280x1024,1280x1024,,main exp,56,LF,,"<div style=""font-size:60px;"">+</div>",,,,html-keyboard-response,77,191469,,,,,
156,1589724873209,17/05/2020 14:14:33,1589724873897,1,17/05/2020 15:14:33,15519,13,task-q8hp,,4988624,BLIND,1414933,,complete,,5ec1456a35f26d02248ca7f1,computer,Desktop or Laptop,Windows 10,Firefox 76.0,1280x1024,1280x1024,,main exp,56,LF,,,,,,,,,,LF,,,
157,1589724874139,17/05/2020 14:14:34,1589724874887,1,17/05/2020 15:14:34,15519,13,task-q8hp,,4988624,BLIND,1414933,,complete,,5ec1456a35f26d02248ca7f1,computer,Desktop or Laptop,Windows 10,Firefox 76.0,1280x1024,1280x1024,,main exp,56,LF,,/task/70033/56/asset/LFtob.mp3,,,,audio-keyboard-response,78,192461,,,,,
158,1589724874202,17/05/2020 14:14:34,1589724874888,1,17/05/2020 15:14:34,15519,13,task-q8hp,,4988624,BLIND,1414933,,complete,,5ec1456a35f26d02248ca7f1,computer,Desktop or Laptop,Windows 10,Firefox 76.0,1280x1024,1280x1024,,main exp,56,LF,,,,,,,,,,LF,,,
159,1589724874592,17/05/2020 14:14:34,1589724875325,1,17/05/2020 15:14:35,15519,13,task-q8hp,,4988624,BLIND,1414933,,complete,,5ec1456a35f26d02248ca7f1,computer,Desktop or Laptop,Windows 10,Firefox 76.0,1280x1024,1280x1024,,main exp,56,LF,,/task/70033/56/asset/30275.jpg,,learningBlock1,,image-keyboard-response,79,192899,,LF,/task/70033/56/asset/30275.jpg,/task/70033/56/asset/LFtob.mp3,
160,1589724874655,17/05/2020 14:14:34,1589724875327,1,17/05/2020 15:14:35,15519,13,task-q8hp,,4988624,BLIND,1414933,,complete,,5ec1456a35f26d02248ca7f1,computer,Desktop or Laptop,Windows 10,Firefox 76.0,1280x1024,1280x1024,,main exp,56,LF,,,,,,,,,,LF,,,
161,1589724875722,17/05/2020 14:14:35,1589724876406,1,17/05/2020 15:14:36,15519,13,task-q8hp,,4988624,BLIND,1414933,,complete,,5ec1456a35f26d02248ca7f1,computer,Desktop or Laptop,Windows 10,Firefox 76.0,1280x1024,1280x1024,,main exp,56,LF,,,,,,,,,,LF,,,
162,1589724875659,17/05/2020 14:14:35,1589724876406,1,17/05/2020 15:14:36,15519,13,task-q8hp,,4988624,BLIND,1414933,,complete,,5ec1456a35f26d02248ca7f1,computer,Desktop or Laptop,Windows 10,Firefox 76.0,1280x1024,1280x1024,,main exp,56,LF,,"<div style=""font-size:60px;"">+</div>",,,,html-keyboard-response,80,193980,,,,,
163,1589724876584,17/05/2020 14:14:36,1589724877315,1,17/05/2020 15:14:37,15519,13,task-q8hp,,4988624,BLIND,1414933,,complete,,5ec1456a35f26d02248ca7f1,computer,Desktop or Laptop,Windows 10,Firefox 76.0,1280x1024,1280x1024,,main exp,56,LF,,/task/70033/56/asset/LFbim.mp3,,,,audio-keyboard-response,81,194889,,,,,
164,1589724876662,17/05/2020 14:14:36,1589724877316,1,17/05/2020 15:14:37,15519,13,task-q8hp,,4988624,BLIND,1414933,,complete,,5ec1456a35f26d02248ca7f1,computer,Desktop or Laptop,Windows 10,Firefox 76.0,1280x1024,1280x1024,,main exp,56,LF,,,,,,,,,,LF,,,
165,1589724877021,17/05/2020 14:14:37,1589724877753,1,17/05/2020 15:14:37,15519,13,task-q8hp,,4988624,BLIND,1414933,,complete,,5ec1456a35f26d02248ca7f1,computer,Desktop or Laptop,Windows 10,Firefox 76.0,1280x1024,1280x1024,,main exp,56,LF,,/task/70033/56/asset/21325.jpg,,learningBlock1,,image-keyboard-response,82,195326,,LF,/task/70033/56/asset/21325.jpg,/task/70033/56/asset/LFbim.mp3,
166,1589724877084,17/05/2020 14:14:37,1589724877755,1,17/05/2020 15:14:37,15519,13,task-q8hp,,4988624,BLIND,1414933,,complete,,5ec1456a35f26d02248ca7f1,computer,Desktop or Laptop,Windows 10,Firefox 76.0,1280x1024,1280x1024,,main exp,56,LF,,,,,,,,,,LF,,,
167,1589724878090,17/05/2020 14:14:38,1589724878835,1,17/05/2020 15:14:38,15519,13,task-q8hp,,4988624,BLIND,1414933,,complete,,5ec1456a35f26d02248ca7f1,computer,Desktop or Laptop,Windows 10,Firefox 76.0,1280x1024,1280x1024,,main exp,56,LF,,"<div style=""font-size:60px;"">+</div>",,,,html-keyboard-response,83,196409,,,,,
168,1589724878153,17/05/2020 14:14:38,1589724878835,1,17/05/2020 15:14:38,15519,13,task-q8hp,,4988624,BLIND,1414933,,complete,,5ec1456a35f26d02248ca7f1,computer,Desktop or Laptop,Windows 10,Firefox 76.0,1280x1024,1280x1024,,main exp,56,LF,,,,,,,,,,LF,,,
169,1589724879090,17/05/2020 14:14:39,1589724879824,1,17/05/2020 15:14:39,15519,13,task-q8hp,,4988624,BLIND,1414933,,complete,,5ec1456a35f26d02248ca7f1,computer,Desktop or Laptop,Windows 10,Firefox 76.0,1280x1024,1280x1024,,main exp,56,LF,,/task/70033/56/asset/LFtob.mp3,,,,audio-keyboard-response,84,197398,,,,,
170,1589724879153,17/05/2020 14:14:39,1589724879826,1,17/05/2020 15:14:39,15519,13,task-q8hp,,4988624,BLIND,1414933,,complete,,5ec1456a35f26d02248ca7f1,computer,Desktop or Laptop,Windows 10,Firefox 76.0,1280x1024,1280x1024,,main exp,56,LF,,,,,,,,,,LF,,,
171,1589724879528,17/05/2020 14:14:39,1589724880264,1,17/05/2020 15:14:40,15519,13,task-q8hp,,4988624,BLIND,1414933,,complete,,5ec1456a35f26d02248ca7f1,computer,Desktop or Laptop,Windows 10,Firefox 76.0,1280x1024,1280x1024,,main exp,56,LF,,/task/70033/56/asset/32575.jpg,,learningBlock1,,image-keyboard-response,85,197837,,LF,/task/70033/56/asset/32575.jpg,/task/70033/56/asset/LFtob.mp3,
172,1589724879582,17/05/2020 14:14:39,1589724880265,1,17/05/2020 15:14:40,15519,13,task-q8hp,,4988624,BLIND,1414933,,complete,,5ec1456a35f26d02248ca7f1,computer,Desktop or Laptop,Windows 10,Firefox 76.0,1280x1024,1280x1024,,main exp,56,LF,,,,,,,,,,LF,,,
173,1589724880613,17/05/2020 14:14:40,1589724881343,1,17/05/2020 15:14:41,15519,13,task-q8hp,,4988624,BLIND,1414933,,complete,,5ec1456a35f26d02248ca7f1,computer,Desktop or Laptop,Windows 10,Firefox 76.0,1280x1024,1280x1024,,main exp,56,LF,,"<div style=""font-size:60px;"">+</div>",,,,html-keyboard-response,86,198917,,,,,
174,1589724880676,17/05/2020 14:14:40,1589724881345,1,17/05/2020 15:14:41,15519,13,task-q8hp,,4988624,BLIND,1414933,,complete,,5ec1456a35f26d02248ca7f1,computer,Desktop or Laptop,Windows 10,Firefox 76.0,1280x1024,1280x1024,,main exp,56,LF,,,,,,,,,,LF,,,
175,1589724881523,17/05/2020 14:14:41,1589724882252,1,17/05/2020 15:14:42,15519,13,task-q8hp,,4988624,BLIND,1414933,,complete,,5ec1456a35f26d02248ca7f1,computer,Desktop or Laptop,Windows 10,Firefox 76.0,1280x1024,1280x1024,,main exp,56,LF,,/task/70033/56/asset/LFdep.mp3,,,,audio-keyboard-response,87,199826,,,,,
176,1589724881585,17/05/2020 14:14:41,1589724882253,1,17/05/2020 15:14:42,15519,13,task-q8hp,,4988624,BLIND,1414933,,complete,,5ec1456a35f26d02248ca7f1,computer,Desktop or Laptop,Windows 10,Firefox 76.0,1280x1024,1280x1024,,main exp,56,LF,,,,,,,,,,LF,,,
177,1589724881960,17/05/2020 14:14:41,1589724882691,1,17/05/2020 15:14:42,15519,13,task-q8hp,,4988624,BLIND,1414933,,complete,,5ec1456a35f26d02248ca7f1,computer,Desktop or Laptop,Windows 10,Firefox 76.0,1280x1024,1280x1024,,main exp,56,LF,,/task/70033/56/asset/12975.jpg,,learningBlock1,,image-keyboard-response,88,200265,,LF,/task/70033/56/asset/12975.jpg,/task/70033/56/asset/LFdep.mp3,
178,1589724882023,17/05/2020 14:14:42,1589724882692,1,17/05/2020 15:14:42,15519,13,task-q8hp,,4988624,BLIND,1414933,,complete,,5ec1456a35f26d02248ca7f1,computer,Desktop or Laptop,Windows 10,Firefox 76.0,1280x1024,1280x1024,,main exp,56,LF,,,,,,,,,,LF,,,
179,1589724883041,17/05/2020 14:14:43,1589724883772,1,17/05/2020 15:14:43,15519,13,task-q8hp,,4988624,BLIND,1414933,,complete,,5ec1456a35f26d02248ca7f1,computer,Desktop or Laptop,Windows 10,Firefox 76.0,1280x1024,1280x1024,,main exp,56,LF,,"<div style=""font-size:60px;"">+</div>",,,,html-keyboard-response,89,201346,,,,,
180,1589724883103,17/05/2020 14:14:43,1589724883774,1,17/05/2020 15:14:43,15519,13,task-q8hp,,4988624,BLIND,1414933,,complete,,5ec1456a35f26d02248ca7f1,computer,Desktop or Laptop,Windows 10,Firefox 76.0,1280x1024,1280x1024,,main exp,56,LF,,,,,,,,,,LF,,,
181,1589724883997,17/05/2020 14:14:43,1589724884680,1,17/05/2020 15:14:44,15519,13,task-q8hp,,4988624,BLIND,1414933,,complete,,5ec1456a35f26d02248ca7f1,computer,Desktop or Laptop,Windows 10,Firefox 76.0,1280x1024,1280x1024,,main exp,56,LF,,,,,,,,,,LF,,,
182,1589724883932,17/05/2020 14:14:43,1589724884680,1,17/05/2020 15:14:44,15519,13,task-q8hp,,4988624,BLIND,1414933,,complete,,5ec1456a35f26d02248ca7f1,computer,Desktop or Laptop,Windows 10,Firefox 76.0,1280x1024,1280x1024,,main exp,56,LF,,/task/70033/56/asset/LFdep.mp3,,,,audio-keyboard-response,90,202254,,,,,
183,1589724884379,17/05/2020 14:14:44,1589724885117,1,17/05/2020 15:14:45,15519,13,task-q8hp,,4988624,BLIND,1414933,,complete,,5ec1456a35f26d02248ca7f1,computer,Desktop or Laptop,Windows 10,Firefox 76.0,1280x1024,1280x1024,,main exp,56,LF,,/task/70033/56/asset/12575.jpg,,learningBlock1,,image-keyboard-response,91,202691,,LF,/task/70033/56/asset/12575.jpg,/task/70033/56/asset/LFdep.mp3,
184,1589724884442,17/05/2020 14:14:44,1589724885119,1,17/05/2020 15:14:45,15519,13,task-q8hp,,4988624,BLIND,1414933,,complete,,5ec1456a35f26d02248ca7f1,computer,Desktop or Laptop,Windows 10,Firefox 76.0,1280x1024,1280x1024,,main exp,56,LF,,,,,,,,,,LF,,,
185,1589724885458,17/05/2020 14:14:45,1589724886199,1,17/05/2020 15:14:46,15519,13,task-q8hp,,4988624,BLIND,1414933,,complete,,5ec1456a35f26d02248ca7f1,computer,Desktop or Laptop,Windows 10,Firefox 76.0,1280x1024,1280x1024,,main exp,56,LF,,"<div style=""font-size:60px;"">+</div>",,,,html-keyboard-response,92,203773,,,,,
186,1589724885504,17/05/2020 14:14:45,1589724886201,1,17/05/2020 15:14:46,15519,13,task-q8hp,,4988624,BLIND,1414933,,complete,,5ec1456a35f26d02248ca7f1,computer,Desktop or Laptop,Windows 10,Firefox 76.0,1280x1024,1280x1024,,main exp,56,LF,,,,,,,,,,LF,,,
187,1589724886370,17/05/2020 14:14:46,1589724887108,1,17/05/2020 15:14:47,15519,13,task-q8hp,,4988624,BLIND,1414933,,complete,,5ec1456a35f26d02248ca7f1,computer,Desktop or Laptop,Windows 10,Firefox 76.0,1280x1024,1280x1024,,main exp,56,LF,,/task/70033/56/asset/LFdep.mp3,,,,audio-keyboard-response,93,204682,,,,,
188,1589724886432,17/05/2020 14:14:46,1589724887109,1,17/05/2020 15:14:47,15519,13,task-q8hp,,4988624,BLIND,1414933,,complete,,5ec1456a35f26d02248ca7f1,computer,Desktop or Laptop,Windows 10,Firefox 76.0,1280x1024,1280x1024,,main exp,56,LF,,,,,,,,,,LF,,,
189,1589724886815,17/05/2020 14:14:46,1589724887546,1,17/05/2020 15:14:47,15519,13,task-q8hp,,4988624,BLIND,1414933,,complete,,5ec1456a35f26d02248ca7f1,computer,Desktop or Laptop,Windows 10,Firefox 76.0,1280x1024,1280x1024,,main exp,56,LF,,/task/70033/56/asset/10125.jpg,,learningBlock1,,image-keyboard-response,94,205120,,LF,/task/70033/56/asset/10125.jpg,/task/70033/56/asset/LFdep.mp3,
190,1589724886877,17/05/2020 14:14:46,1589724887548,1,17/05/2020 15:14:47,15519,13,task-q8hp,,4988624,BLIND,1414933,,complete,,5ec1456a35f26d02248ca7f1,computer,Desktop or Laptop,Windows 10,Firefox 76.0,1280x1024,1280x1024,,main exp,56,LF,,,,,,,,,,LF,,,
191,1589724887886,17/05/2020 14:14:47,1589724888629,1,17/05/2020 15:14:48,15519,13,task-q8hp,,4988624,BLIND,1414933,,complete,,5ec1456a35f26d02248ca7f1,computer,Desktop or Laptop,Windows 10,Firefox 76.0,1280x1024,1280x1024,,main exp,56,LF,,"<div style=""font-size:60px;"">+</div>",,,,html-keyboard-response,95,206203,,,,,
192,1589724887948,17/05/2020 14:14:47,1589724888630,1,17/05/2020 15:14:48,15519,13,task-q8hp,,4988624,BLIND,1414933,,complete,,5ec1456a35f26d02248ca7f1,computer,Desktop or Laptop,Windows 10,Firefox 76.0,1280x1024,1280x1024,,main exp,56,LF,,,,,,,,,,LF,,,
193,1589724888886,17/05/2020 14:14:48,1589724889617,1,17/05/2020 15:14:49,15519,13,task-q8hp,,4988624,BLIND,1414933,,complete,,5ec1456a35f26d02248ca7f1,computer,Desktop or Laptop,Windows 10,Firefox 76.0,1280x1024,1280x1024,,main exp,56,LF,,/task/70033/56/asset/LFtob.mp3,,,,audio-keyboard-response,96,207191,,,,,
194,1589724888933,17/05/2020 14:14:48,1589724889618,1,17/05/2020 15:14:49,15519,13,task-q8hp,,4988624,BLIND,1414933,,complete,,5ec1456a35f26d02248ca7f1,computer,Desktop or Laptop,Windows 10,Firefox 76.0,1280x1024,1280x1024,,main exp,56,LF,,,,,,,,,,LF,,,
195,1589724889308,17/05/2020 14:14:49,1589724890057,1,17/05/2020 15:14:50,15519,13,task-q8hp,,4988624,BLIND,1414933,,complete,,5ec1456a35f26d02248ca7f1,computer,Desktop or Laptop,Windows 10,Firefox 76.0,1280x1024,1280x1024,,main exp,56,LF,,/task/70033/56/asset/32575.jpg,,learningBlock1,,image-keyboard-response,97,207631,,LF,/task/70033/56/asset/32575.jpg,/task/70033/56/asset/LFtob.mp3,
196,1589724889370,17/05/2020 14:14:49,1589724890059,1,17/05/2020 15:14:50,15519,13,task-q8hp,,4988624,BLIND,1414933,,complete,,5ec1456a35f26d02248ca7f1,computer,Desktop or Laptop,Windows 10,Firefox 76.0,1280x1024,1280x1024,,main exp,56,LF,,,,,,,,,,LF,,,
197,1589724890386,17/05/2020 14:14:50,1589724891136,1,17/05/2020 15:14:51,15519,13,task-q8hp,,4988624,BLIND,1414933,,complete,,5ec1456a35f26d02248ca7f1,computer,Desktop or Laptop,Windows 10,Firefox 76.0,1280x1024,1280x1024,,main exp,56,LF,,"<div style=""font-size:60px;"">+</div>",,,,html-keyboard-response,98,208710,,,,,
198,1589724890448,17/05/2020 14:14:50,1589724891138,1,17/05/2020 15:14:51,15519,13,task-q8hp,,4988624,BLIND,1414933,,complete,,5ec1456a35f26d02248ca7f1,computer,Desktop or Laptop,Windows 10,Firefox 76.0,1280x1024,1280x1024,,main exp,56,LF,,,,,,,,,,LF,,,
199,1589724891308,17/05/2020 14:14:51,1589724892045,1,17/05/2020 15:14:52,15519,13,task-q8hp,,4988624,BLIND,1414933,,complete,,5ec1456a35f26d02248ca7f1,computer,Desktop or Laptop,Windows 10,Firefox 76.0,1280x1024,1280x1024,,main exp,56,LF,,/task/70033/56/asset/LFbim.mp3,,,,audio-keyboard-response,99,209619,,,,,
200,1589724891370,17/05/2020 14:14:51,1589724892046,1,17/05/2020 15:14:52,15519,13,task-q8hp,,4988624,BLIND,1414933,,complete,,5ec1456a35f26d02248ca7f1,computer,Desktop or Laptop,Windows 10,Firefox 76.0,1280x1024,1280x1024,,main exp,56,LF,,,,,,,,,,LF,,,
201,1589724891745,17/05/2020 14:14:51,1589724892484,1,17/05/2020 15:14:52,15519,13,task-q8hp,,4988624,BLIND,1414933,,complete,,5ec1456a35f26d02248ca7f1,computer,Desktop or Laptop,Windows 10,Firefox 76.0,1280x1024,1280x1024,,main exp,56,LF,,/task/70033/56/asset/21625.jpg,,learningBlock1,,image-keyboard-response,100,210058,,LF,/task/70033/56/asset/21625.jpg,/task/70033/56/asset/LFbim.mp3,
202,1589724891808,17/05/2020 14:14:51,1589724892486,1,17/05/2020 15:14:52,15519,13,task-q8hp,,4988624,BLIND,1414933,,complete,,5ec1456a35f26d02248ca7f1,computer,Desktop or Laptop,Windows 10,Firefox 76.0,1280x1024,1280x1024,,main exp,56,LF,,,,,,,,,,LF,,,
203,1589724892825,17/05/2020 14:14:52,1589724893559,1,17/05/2020 15:14:53,15519,13,task-q8hp,,4988624,BLIND,1414933,,complete,,5ec1456a35f26d02248ca7f1,computer,Desktop or Laptop,Windows 10,Firefox 76.0,1280x1024,1280x1024,,main exp,56,LF,1072,,37,randomDot,,rdk,101,211133,1,,,,
204,1589724892933,17/05/2020 14:14:52,1589724893561,1,17/05/2020 15:14:53,15519,13,task-q8hp,,4988624,BLIND,1414933,,complete,,5ec1456a35f26d02248ca7f1,computer,Desktop or Laptop,Windows 10,Firefox 76.0,1280x1024,1280x1024,,main exp,56,LF,,,,,,,,,,LF,,,
205,1589724894712,17/05/2020 14:14:54,1589724895443,1,17/05/2020 15:14:55,15519,13,task-q8hp,,4988624,BLIND,1414933,,complete,,5ec1456a35f26d02248ca7f1,computer,Desktop or Laptop,Windows 10,Firefox 76.0,1280x1024,1280x1024,,main exp,56,LF,1378,,37,randomDot,,rdk,102,213016,1,,,,
206,1589724894776,17/05/2020 14:14:54,1589724895444,1,17/05/2020 15:14:55,15519,13,task-q8hp,,4988624,BLIND,1414933,,complete,,5ec1456a35f26d02248ca7f1,computer,Desktop or Laptop,Windows 10,Firefox 76.0,1280x1024,1280x1024,,main exp,56,LF,,,,,,,,,,LF,,,
207,1589724895978,17/05/2020 14:14:55,1589724896709,1,17/05/2020 15:14:56,15519,13,task-q8hp,,4988624,BLIND,1414933,,complete,,5ec1456a35f26d02248ca7f1,computer,Desktop or Laptop,Windows 10,Firefox 76.0,1280x1024,1280x1024,,main exp,56,LF,762,,39,randomDot,,rdk,103,214283,1,,,,
208,1589724896040,17/05/2020 14:14:56,1589724896711,1,17/05/2020 15:14:56,15519,13,task-q8hp,,4988624,BLIND,1414933,,complete,,5ec1456a35f26d02248ca7f1,computer,Desktop or Laptop,Windows 10,Firefox 76.0,1280x1024,1280x1024,,main exp,56,LF,,,,,,,,,,LF,,,
209,1589724897245,17/05/2020 14:14:57,1589724897974,1,17/05/2020 15:14:57,15519,13,task-q8hp,,4988624,BLIND,1414933,,complete,,5ec1456a35f26d02248ca7f1,computer,Desktop or Laptop,Windows 10,Firefox 76.0,1280x1024,1280x1024,,main exp,56,LF,760,,37,randomDot,,rdk,104,215548,1,,,,
210,1589724897306,17/05/2020 14:14:57,1589724897976,1,17/05/2020 15:14:57,15519,13,task-q8hp,,4988624,BLIND,1414933,,complete,,5ec1456a35f26d02248ca7f1,computer,Desktop or Laptop,Windows 10,Firefox 76.0,1280x1024,1280x1024,,main exp,56,LF,,,,,,,,,,LF,,,
211,1589724898540,17/05/2020 14:14:58,1589724899231,1,17/05/2020 15:14:59,15519,13,task-q8hp,,4988624,BLIND,1414933,,complete,,5ec1456a35f26d02248ca7f1,computer,Desktop or Laptop,Windows 10,Firefox 76.0,1280x1024,1280x1024,,main exp,56,LF,750,,39,randomDot,,rdk,105,216804,1,,,,
212,1589724898634,17/05/2020 14:14:58,1589724899235,1,17/05/2020 15:14:59,15519,13,task-q8hp,,4988624,BLIND,1414933,,complete,,5ec1456a35f26d02248ca7f1,computer,Desktop or Laptop,Windows 10,Firefox 76.0,1280x1024,1280x1024,,main exp,56,LF,,,,,,,,,,LF,,,
213,1589724903622,17/05/2020 14:15:03,1589724904350,1,17/05/2020 15:15:04,15519,13,task-q8hp,,4988624,BLIND,1414933,,complete,,5ec1456a35f26d02248ca7f1,computer,Desktop or Laptop,Windows 10,Firefox 76.0,1280x1024,1280x1024,,main exp,56,LF,4612,<p>You responded correctly on 91% of the trials.</p><p>Press any key to continue the experiment!</p>,32,,,html-keyboard-response,106,221923,,,,,
214,1589724903682,17/05/2020 14:15:03,1589724904351,1,17/05/2020 15:15:04,15519,13,task-q8hp,,4988624,BLIND,1414933,,complete,,5ec1456a35f26d02248ca7f1,computer,Desktop or Laptop,Windows 10,Firefox 76.0,1280x1024,1280x1024,,main exp,56,LF,,,,,,,,,,LF,,,
215,1589724904323,17/05/2020 14:15:04,1589724905052,1,17/05/2020 15:15:05,15519,13,task-q8hp,,4988624,BLIND,1414933,,complete,,5ec1456a35f26d02248ca7f1,computer,Desktop or Laptop,Windows 10,Firefox 76.0,1280x1024,1280x1024,,main exp,56,LF,,"<div style=""font-size:60px;"">+</div>",,,,html-keyboard-response,107,222626,,,,,
216,1589724904401,17/05/2020 14:15:04,1589724905054,1,17/05/2020 15:15:05,15519,13,task-q8hp,,4988624,BLIND,1414933,,complete,,5ec1456a35f26d02248ca7f1,computer,Desktop or Laptop,Windows 10,Firefox 76.0,1280x1024,1280x1024,,main exp,56,LF,,,,,,,,,,LF,,,
217,1589724905220,17/05/2020 14:15:05,1589724905963,1,17/05/2020 15:15:05,15519,13,task-q8hp,,4988624,BLIND,1414933,,complete,,5ec1456a35f26d02248ca7f1,computer,Desktop or Laptop,Windows 10,Firefox 76.0,1280x1024,1280x1024,,main exp,56,LF,,/task/70033/56/asset/LFdep.mp3,,,,audio-keyboard-response,108,223536,,,,,
218,1589724905300,17/05/2020 14:15:05,1589724905964,1,17/05/2020 15:15:05,15519,13,task-q8hp,,4988624,BLIND,1414933,,complete,,5ec1456a35f26d02248ca7f1,computer,Desktop or Laptop,Windows 10,Firefox 76.0,1280x1024,1280x1024,,main exp,56,LF,,,,,,,,,,LF,,,
219,1589724905667,17/05/2020 14:15:05,1589724906402,1,17/05/2020 15:15:06,15519,13,task-q8hp,,4988624,BLIND,1414933,,complete,,5ec1456a35f26d02248ca7f1,computer,Desktop or Laptop,Windows 10,Firefox 76.0,1280x1024,1280x1024,,main exp,56,LF,,/task/70033/56/asset/10325.jpg,,learningBlock2,,image-keyboard-response,109,223976,,LF,/task/70033/56/asset/10325.jpg,/task/70033/56/asset/LFdep.mp3,
220,1589724905736,17/05/2020 14:15:05,1589724906404,1,17/05/2020 15:15:06,15519,13,task-q8hp,,4988624,BLIND,1414933,,complete,,5ec1456a35f26d02248ca7f1,computer,Desktop or Laptop,Windows 10,Firefox 76.0,1280x1024,1280x1024,,main exp,56,LF,,,,,,,,,,LF,,,
221,1589724906376,17/05/2020 14:15:06,1589724907106,1,17/05/2020 15:15:07,15519,13,task-q8hp,,4988624,BLIND,1414933,,complete,,5ec1456a35f26d02248ca7f1,computer,Desktop or Laptop,Windows 10,Firefox 76.0,1280x1024,1280x1024,,main exp,56,LF,,"<div style=""font-size:60px;"">+</div>",,,,html-keyboard-response,110,224680,,,,,
222,1589724906439,17/05/2020 14:15:06,1589724907107,1,17/05/2020 15:15:07,15519,13,task-q8hp,,4988624,BLIND,1414933,,complete,,5ec1456a35f26d02248ca7f1,computer,Desktop or Laptop,Windows 10,Firefox 76.0,1280x1024,1280x1024,,main exp,56,LF,,,,,,,,,,LF,,,
223,1589724907282,17/05/2020 14:15:07,1589724908014,1,17/05/2020 15:15:08,15519,13,task-q8hp,,4988624,BLIND,1414933,,complete,,5ec1456a35f26d02248ca7f1,computer,Desktop or Laptop,Windows 10,Firefox 76.0,1280x1024,1280x1024,,main exp,56,LF,,/task/70033/56/asset/LFdep.mp3,,,,audio-keyboard-response,111,225588,,,,,
224,1589724907345,17/05/2020 14:15:07,1589724908016,1,17/05/2020 15:15:08,15519,13,task-q8hp,,4988624,BLIND,1414933,,complete,,5ec1456a35f26d02248ca7f1,computer,Desktop or Laptop,Windows 10,Firefox 76.0,1280x1024,1280x1024,,main exp,56,LF,,,,,,,,,,LF,,,
225,1589724907726,17/05/2020 14:15:07,1589724908454,1,17/05/2020 15:15:08,15519,13,task-q8hp,,4988624,BLIND,1414933,,complete,,5ec1456a35f26d02248ca7f1,computer,Desktop or Laptop,Windows 10,Firefox 76.0,1280x1024,1280x1024,,main exp,56,LF,,/task/70033/56/asset/12575.jpg,,learningBlock2,,image-keyboard-response,112,226028,,LF,/task/70033/56/asset/12575.jpg,/task/70033/56/asset/LFdep.mp3,
226,1589724907788,17/05/2020 14:15:07,1589724908455,1,17/05/2020 15:15:08,15519,13,task-q8hp,,4988624,BLIND,1414933,,complete,,5ec1456a35f26d02248ca7f1,computer,Desktop or Laptop,Windows 10,Firefox 76.0,1280x1024,1280x1024,,main exp,56,LF,,,,,,,,,,LF,,,
227,1589724908429,17/05/2020 14:15:08,1589724909158,1,17/05/2020 15:15:09,15519,13,task-q8hp,,4988624,BLIND,1414933,,complete,,5ec1456a35f26d02248ca7f1,computer,Desktop or Laptop,Windows 10,Firefox 76.0,1280x1024,1280x1024,,main exp,56,LF,,"<div style=""font-size:60px;"">+</div>",,,,html-keyboard-response,113,226731,,,,,
228,1589724908491,17/05/2020 14:15:08,1589724909158,1,17/05/2020 15:15:09,15519,13,task-q8hp,,4988624,BLIND,1414933,,complete,,5ec1456a35f26d02248ca7f1,computer,Desktop or Laptop,Windows 10,Firefox 76.0,1280x1024,1280x1024,,main exp,56,LF,,,,,,,,,,LF,,,
229,1589724909413,17/05/2020 14:15:09,1589724910148,1,17/05/2020 15:15:10,15519,13,task-q8hp,,4988624,BLIND,1414933,,complete,,5ec1456a35f26d02248ca7f1,computer,Desktop or Laptop,Windows 10,Firefox 76.0,1280x1024,1280x1024,,main exp,56,LF,,/task/70033/56/asset/LFtob.mp3,,,,audio-keyboard-response,114,227722,,,,,
230,1589724909476,17/05/2020 14:15:09,1589724910149,1,17/05/2020 15:15:10,15519,13,task-q8hp,,4988624,BLIND,1414933,,complete,,5ec1456a35f26d02248ca7f1,computer,Desktop or Laptop,Windows 10,Firefox 76.0,1280x1024,1280x1024,,main exp,56,LF,,,,,,,,,,LF,,,
231,1589724909898,17/05/2020 14:15:09,1589724910588,1,17/05/2020 15:15:10,15519,13,task-q8hp,,4988624,BLIND,1414933,,complete,,5ec1456a35f26d02248ca7f1,computer,Desktop or Laptop,Windows 10,Firefox 76.0,1280x1024,1280x1024,,main exp,56,LF,,,,,,,,,,LF,,,
232,1589724909851,17/05/2020 14:15:09,1589724910588,1,17/05/2020 15:15:10,15519,13,task-q8hp,,4988624,BLIND,1414933,,complete,,5ec1456a35f26d02248ca7f1,computer,Desktop or Laptop,Windows 10,Firefox 76.0,1280x1024,1280x1024,,main exp,56,LF,,/task/70033/56/asset/31875.jpg,,learningBlock2,,image-keyboard-response,115,228162,,LF,/task/70033/56/asset/31875.jpg,/task/70033/56/asset/LFtob.mp3,
233,1589724910557,17/05/2020 14:15:10,1589724911291,1,17/05/2020 15:15:11,15519,13,task-q8hp,,4988624,BLIND,1414933,,complete,,5ec1456a35f26d02248ca7f1,computer,Desktop or Laptop,Windows 10,Firefox 76.0,1280x1024,1280x1024,,main exp,56,LF,,"<div style=""font-size:60px;"">+</div>",,,,html-keyboard-response,116,228865,,,,,
234,1589724910620,17/05/2020 14:15:10,1589724911291,1,17/05/2020 15:15:11,15519,13,task-q8hp,,4988624,BLIND,1414933,,complete,,5ec1456a35f26d02248ca7f1,computer,Desktop or Laptop,Windows 10,Firefox 76.0,1280x1024,1280x1024,,main exp,56,LF,,,,,,,,,,LF,,,
235,1589724911471,17/05/2020 14:15:11,1589724912200,1,17/05/2020 15:15:12,15519,13,task-q8hp,,4988624,BLIND,1414933,,complete,,5ec1456a35f26d02248ca7f1,computer,Desktop or Laptop,Windows 10,Firefox 76.0,1280x1024,1280x1024,,main exp,56,LF,,/task/70033/56/asset/LFdep.mp3,,,,audio-keyboard-response,117,229773,,,,,
236,1589724911533,17/05/2020 14:15:11,1589724912201,1,17/05/2020 15:15:12,15519,13,task-q8hp,,4988624,BLIND,1414933,,complete,,5ec1456a35f26d02248ca7f1,computer,Desktop or Laptop,Windows 10,Firefox 76.0,1280x1024,1280x1024,,main exp,56,LF,,,,,,,,,,LF,,,
237,1589724911893,17/05/2020 14:15:11,1589724912640,1,17/05/2020 15:15:12,15519,13,task-q8hp,,4988624,BLIND,1414933,,complete,,5ec1456a35f26d02248ca7f1,computer,Desktop or Laptop,Windows 10,Firefox 76.0,1280x1024,1280x1024,,main exp,56,LF,,/task/70033/56/asset/10325.jpg,,learningBlock2,,image-keyboard-response,118,230213,,LF,/task/70033/56/asset/10325.jpg,/task/70033/56/asset/LFdep.mp3,
238,1589724911956,17/05/2020 14:15:11,1589724912640,1,17/05/2020 15:15:12,15519,13,task-q8hp,,4988624,BLIND,1414933,,complete,,5ec1456a35f26d02248ca7f1,computer,Desktop or Laptop,Windows 10,Firefox 76.0,1280x1024,1280x1024,,main exp,56,LF,,,,,,,,,,LF,,,
239,1589724912612,17/05/2020 14:15:12,1589724913343,1,17/05/2020 15:15:13,15519,13,task-q8hp,,4988624,BLIND,1414933,,complete,,5ec1456a35f26d02248ca7f1,computer,Desktop or Laptop,Windows 10,Firefox 76.0,1280x1024,1280x1024,,main exp,56,LF,,"<div style=""font-size:60px;"">+</div>",,,,html-keyboard-response,119,230916,,,,,
240,1589724912674,17/05/2020 14:15:12,1589724913344,1,17/05/2020 15:15:13,15519,13,task-q8hp,,4988624,BLIND,1414933,,complete,,5ec1456a35f26d02248ca7f1,computer,Desktop or Laptop,Windows 10,Firefox 76.0,1280x1024,1280x1024,,main exp,56,LF,,,,,,,,,,LF,,,
241,1589724913588,17/05/2020 14:15:13,1589724914333,1,17/05/2020 15:15:14,15519,13,task-q8hp,,4988624,BLIND,1414933,,complete,,5ec1456a35f26d02248ca7f1,computer,Desktop or Laptop,Windows 10,Firefox 76.0,1280x1024,1280x1024,,main exp,56,LF,,/task/70033/56/asset/LFtob.mp3,,,,audio-keyboard-response,120,231907,,,,,
242,1589724913682,17/05/2020 14:15:13,1589724914335,1,17/05/2020 15:15:14,15519,13,task-q8hp,,4988624,BLIND,1414933,,complete,,5ec1456a35f26d02248ca7f1,computer,Desktop or Laptop,Windows 10,Firefox 76.0,1280x1024,1280x1024,,main exp,56,LF,,,,,,,,,,LF,,,
243,1589724914057,17/05/2020 14:15:14,1589724914773,1,17/05/2020 15:15:14,15519,13,task-q8hp,,4988624,BLIND,1414933,,complete,,5ec1456a35f26d02248ca7f1,computer,Desktop or Laptop,Windows 10,Firefox 76.0,1280x1024,1280x1024,,main exp,56,LF,,/task/70033/56/asset/30925.jpg,,learningBlock2,,image-keyboard-response,121,232347,,LF,/task/70033/56/asset/30925.jpg,/task/70033/56/asset/LFtob.mp3,
244,1589724914120,17/05/2020 14:15:14,1589724914776,1,17/05/2020 15:15:14,15519,13,task-q8hp,,4988624,BLIND,1414933,,complete,,5ec1456a35f26d02248ca7f1,computer,Desktop or Laptop,Windows 10,Firefox 76.0,1280x1024,1280x1024,,main exp,56,LF,,,,,,,,,,LF,,,
245,1589724914729,17/05/2020 14:15:14,1589724915477,1,17/05/2020 15:15:15,15519,13,task-q8hp,,4988624,BLIND,1414933,,complete,,5ec1456a35f26d02248ca7f1,computer,Desktop or Laptop,Windows 10,Firefox 76.0,1280x1024,1280x1024,,main exp,56,LF,,"<div style=""font-size:60px;"">+</div>",,,,html-keyboard-response,122,233051,,,,,
246,1589724914791,17/05/2020 14:15:14,1589724915479,1,17/05/2020 15:15:15,15519,13,task-q8hp,,4988624,BLIND,1414933,,complete,,5ec1456a35f26d02248ca7f1,computer,Desktop or Laptop,Windows 10,Firefox 76.0,1280x1024,1280x1024,,main exp,56,LF,,,,,,,,,,LF,,,
247,1589724915655,17/05/2020 14:15:15,1589724916385,1,17/05/2020 15:15:16,15519,13,task-q8hp,,4988624,BLIND,1414933,,complete,,5ec1456a35f26d02248ca7f1,computer,Desktop or Laptop,Windows 10,Firefox 76.0,1280x1024,1280x1024,,main exp,56,LF,,/task/70033/56/asset/LFbim.mp3,,,,audio-keyboard-response,123,233959,,,,,
248,1589724915717,17/05/2020 14:15:15,1589724916386,1,17/05/2020 15:15:16,15519,13,task-q8hp,,4988624,BLIND,1414933,,complete,,5ec1456a35f26d02248ca7f1,computer,Desktop or Laptop,Windows 10,Firefox 76.0,1280x1024,1280x1024,,main exp,56,LF,,,,,,,,,,LF,,,
249,1589724916076,17/05/2020 14:15:16,1589724916823,1,17/05/2020 15:15:16,15519,13,task-q8hp,,4988624,BLIND,1414933,,complete,,5ec1456a35f26d02248ca7f1,computer,Desktop or Laptop,Windows 10,Firefox 76.0,1280x1024,1280x1024,,main exp,56,LF,,/task/70033/56/asset/21175.jpg,,learningBlock2,,image-keyboard-response,124,234397,,LF,/task/70033/56/asset/21175.jpg,/task/70033/56/asset/LFbim.mp3,
250,1589724916155,17/05/2020 14:15:16,1589724916824,1,17/05/2020 15:15:16,15519,13,task-q8hp,,4988624,BLIND,1414933,,complete,,5ec1456a35f26d02248ca7f1,computer,Desktop or Laptop,Windows 10,Firefox 76.0,1280x1024,1280x1024,,main exp,56,LF,,,,,,,,,,LF,,,
251,1589724916795,17/05/2020 14:15:16,1589724917527,1,17/05/2020 15:15:17,15519,13,task-q8hp,,4988624,BLIND,1414933,,complete,,5ec1456a35f26d02248ca7f1,computer,Desktop or Laptop,Windows 10,Firefox 76.0,1280x1024,1280x1024,,main exp,56,LF,,"<div style=""font-size:60px;"">+</div>",,,,html-keyboard-response,125,235101,,,,,
252,1589724916858,17/05/2020 14:15:16,1589724917528,1,17/05/2020 15:15:17,15519,13,task-q8hp,,4988624,BLIND,1414933,,complete,,5ec1456a35f26d02248ca7f1,computer,Desktop or Laptop,Windows 10,Firefox 76.0,1280x1024,1280x1024,,main exp,56,LF,,,,,,,,,,LF,,,
253,1589724917780,17/05/2020 14:15:17,1589724918519,1,17/05/2020 15:15:18,15519,13,task-q8hp,,4988624,BLIND,1414933,,complete,,5ec1456a35f26d02248ca7f1,computer,Desktop or Laptop,Windows 10,Firefox 76.0,1280x1024,1280x1024,,main exp,56,LF,,/task/70033/56/asset/LFtob.mp3,,,,audio-keyboard-response,126,236093,,,,,
254,1589724917858,17/05/2020 14:15:17,1589724918520,1,17/05/2020 15:15:18,15519,13,task-q8hp,,4988624,BLIND,1414933,,complete,,5ec1456a35f26d02248ca7f1,computer,Desktop or Laptop,Windows 10,Firefox 76.0,1280x1024,1280x1024,,main exp,56,LF,,,,,,,,,,LF,,,
255,1589724918207,17/05/2020 14:15:18,1589724918958,1,17/05/2020 15:15:18,15519,13,task-q8hp,,4988624,BLIND,1414933,,complete,,5ec1456a35f26d02248ca7f1,computer,Desktop or Laptop,Windows 10,Firefox 76.0,1280x1024,1280x1024,,main exp,56,LF,,/task/70033/56/asset/32275.jpg,,learningBlock2,,image-keyboard-response,127,236532,,LF,/task/70033/56/asset/32275.jpg,/task/70033/56/asset/LFtob.mp3,
256,1589724918286,17/05/2020 14:15:18,1589724918959,1,17/05/2020 15:15:18,15519,13,task-q8hp,,4988624,BLIND,1414933,,complete,,5ec1456a35f26d02248ca7f1,computer,Desktop or Laptop,Windows 10,Firefox 76.0,1280x1024,1280x1024,,main exp,56,LF,,,,,,,,,,LF,,,
257,1589724918926,17/05/2020 14:15:18,1589724919659,1,17/05/2020 15:15:19,15519,13,task-q8hp,,4988624,BLIND,1414933,,complete,,5ec1456a35f26d02248ca7f1,computer,Desktop or Laptop,Windows 10,Firefox 76.0,1280x1024,1280x1024,,main exp,56,LF,,"<div style=""font-size:60px;"">+</div>",,,,html-keyboard-response,128,237233,,,,,
258,1589724918989,17/05/2020 14:15:18,1589724919661,1,17/05/2020 15:15:19,15519,13,task-q8hp,,4988624,BLIND,1414933,,complete,,5ec1456a35f26d02248ca7f1,computer,Desktop or Laptop,Windows 10,Firefox 76.0,1280x1024,1280x1024,,main exp,56,LF,,,,,,,,,,LF,,,
259,1589724919833,17/05/2020 14:15:19,1589724920570,1,17/05/2020 15:15:20,15519,13,task-q8hp,,4988624,BLIND,1414933,,complete,,5ec1456a35f26d02248ca7f1,computer,Desktop or Laptop,Windows 10,Firefox 76.0,1280x1024,1280x1024,,main exp,56,LF,,/task/70033/56/asset/LFbim.mp3,,,,audio-keyboard-response,129,238144,,,,,
260,1589724919895,17/05/2020 14:15:19,1589724920572,1,17/05/2020 15:15:20,15519,13,task-q8hp,,4988624,BLIND,1414933,,complete,,5ec1456a35f26d02248ca7f1,computer,Desktop or Laptop,Windows 10,Firefox 76.0,1280x1024,1280x1024,,main exp,56,LF,,,,,,,,,,LF,,,
261,1589724920270,17/05/2020 14:15:20,1589724921011,1,17/05/2020 15:15:21,15519,13,task-q8hp,,4988624,BLIND,1414933,,complete,,5ec1456a35f26d02248ca7f1,computer,Desktop or Laptop,Windows 10,Firefox 76.0,1280x1024,1280x1024,,main exp,56,LF,,/task/70033/56/asset/21275.jpg,,learningBlock2,,image-keyboard-response,130,238585,,LF,/task/70033/56/asset/21275.jpg,/task/70033/56/asset/LFbim.mp3,
262,1589724920333,17/05/2020 14:15:20,1589724921012,1,17/05/2020 15:15:21,15519,13,task-q8hp,,4988624,BLIND,1414933,,complete,,5ec1456a35f26d02248ca7f1,computer,Desktop or Laptop,Windows 10,Firefox 76.0,1280x1024,1280x1024,,main exp,56,LF,,,,,,,,,,LF,,,
263,1589724920973,17/05/2020 14:15:20,1589724921713,1,17/05/2020 15:15:21,15519,13,task-q8hp,,4988624,BLIND,1414933,,complete,,5ec1456a35f26d02248ca7f1,computer,Desktop or Laptop,Windows 10,Firefox 76.0,1280x1024,1280x1024,,main exp,56,LF,,"<div style=""font-size:60px;"">+</div>",,,,html-keyboard-response,131,239287,,,,,
264,1589724921036,17/05/2020 14:15:21,1589724921714,1,17/05/2020 15:15:21,15519,13,task-q8hp,,4988624,BLIND,1414933,,complete,,5ec1456a35f26d02248ca7f1,computer,Desktop or Laptop,Windows 10,Firefox 76.0,1280x1024,1280x1024,,main exp,56,LF,,,,,,,,,,LF,,,
265,1589724921878,17/05/2020 14:15:21,1589724922623,1,17/05/2020 15:15:22,15519,13,task-q8hp,,4988624,BLIND,1414933,,complete,,5ec1456a35f26d02248ca7f1,computer,Desktop or Laptop,Windows 10,Firefox 76.0,1280x1024,1280x1024,,main exp,56,LF,,/task/70033/56/asset/LFbim.mp3,,,,audio-keyboard-response,132,240197,,,,,
266,1589724921943,17/05/2020 14:15:21,1589724922623,1,17/05/2020 15:15:22,15519,13,task-q8hp,,4988624,BLIND,1414933,,complete,,5ec1456a35f26d02248ca7f1,computer,Desktop or Laptop,Windows 10,Firefox 76.0,1280x1024,1280x1024,,main exp,56,LF,,,,,,,,,,LF,,,
267,1589724922331,17/05/2020 14:15:22,1589724923062,1,17/05/2020 15:15:23,15519,13,task-q8hp,,4988624,BLIND,1414933,,complete,,5ec1456a35f26d02248ca7f1,computer,Desktop or Laptop,Windows 10,Firefox 76.0,1280x1024,1280x1024,,main exp,56,LF,,/task/70033/56/asset/20375.jpg,,learningBlock2,,image-keyboard-response,133,240636,,LF,/task/70033/56/asset/20375.jpg,/task/70033/56/asset/LFbim.mp3,
268,1589724922378,17/05/2020 14:15:22,1589724923063,1,17/05/2020 15:15:23,15519,13,task-q8hp,,4988624,BLIND,1414933,,complete,,5ec1456a35f26d02248ca7f1,computer,Desktop or Laptop,Windows 10,Firefox 76.0,1280x1024,1280x1024,,main exp,56,LF,,,,,,,,,,LF,,,
269,1589724923021,17/05/2020 14:15:23,1589724923764,1,17/05/2020 15:15:23,15519,13,task-q8hp,,4988624,BLIND,1414933,,complete,,5ec1456a35f26d02248ca7f1,computer,Desktop or Laptop,Windows 10,Firefox 76.0,1280x1024,1280x1024,,main exp,56,LF,,"<div style=""font-size:60px;"">+</div>",,,,html-keyboard-response,134,241338,,,,,
270,1589724923083,17/05/2020 14:15:23,1589724923765,1,17/05/2020 15:15:23,15519,13,task-q8hp,,4988624,BLIND,1414933,,complete,,5ec1456a35f26d02248ca7f1,computer,Desktop or Laptop,Windows 10,Firefox 76.0,1280x1024,1280x1024,,main exp,56,LF,,,,,,,,,,LF,,,
271,1589724923943,17/05/2020 14:15:23,1589724924675,1,17/05/2020 15:15:24,15519,13,task-q8hp,,4988624,BLIND,1414933,,complete,,5ec1456a35f26d02248ca7f1,computer,Desktop or Laptop,Windows 10,Firefox 76.0,1280x1024,1280x1024,,main exp,56,LF,,/task/70033/56/asset/LFdep.mp3,,,,audio-keyboard-response,135,242248,,,,,
272,1589724924005,17/05/2020 14:15:24,1589724924676,1,17/05/2020 15:15:24,15519,13,task-q8hp,,4988624,BLIND,1414933,,complete,,5ec1456a35f26d02248ca7f1,computer,Desktop or Laptop,Windows 10,Firefox 76.0,1280x1024,1280x1024,,main exp,56,LF,,,,,,,,,,LF,,,
273,1589724924380,17/05/2020 14:15:24,1589724925114,1,17/05/2020 15:15:25,15519,13,task-q8hp,,4988624,BLIND,1414933,,complete,,5ec1456a35f26d02248ca7f1,computer,Desktop or Laptop,Windows 10,Firefox 76.0,1280x1024,1280x1024,,main exp,56,LF,,/task/70033/56/asset/11675.jpg,,learningBlock2,,image-keyboard-response,136,242688,,LF,/task/70033/56/asset/11675.jpg,/task/70033/56/asset/LFdep.mp3,
274,1589724924443,17/05/2020 14:15:24,1589724925115,1,17/05/2020 15:15:25,15519,13,task-q8hp,,4988624,BLIND,1414933,,complete,,5ec1456a35f26d02248ca7f1,computer,Desktop or Laptop,Windows 10,Firefox 76.0,1280x1024,1280x1024,,main exp,56,LF,,,,,,,,,,LF,,,
275,1589724925074,17/05/2020 14:15:25,1589724925816,1,17/05/2020 15:15:25,15519,13,task-q8hp,,4988624,BLIND,1414933,,complete,,5ec1456a35f26d02248ca7f1,computer,Desktop or Laptop,Windows 10,Firefox 76.0,1280x1024,1280x1024,,main exp,56,LF,,"<div style=""font-size:60px;"">+</div>",,,,html-keyboard-response,137,243390,,,,,
276,1589724925136,17/05/2020 14:15:25,1589724925818,1,17/05/2020 15:15:25,15519,13,task-q8hp,,4988624,BLIND,1414933,,complete,,5ec1456a35f26d02248ca7f1,computer,Desktop or Laptop,Windows 10,Firefox 76.0,1280x1024,1280x1024,,main exp,56,LF,,,,,,,,,,LF,,,
277,1589724925986,17/05/2020 14:15:25,1589724926726,1,17/05/2020 15:15:26,15519,13,task-q8hp,,4988624,BLIND,1414933,,complete,,5ec1456a35f26d02248ca7f1,computer,Desktop or Laptop,Windows 10,Firefox 76.0,1280x1024,1280x1024,,main exp,56,LF,,/task/70033/56/asset/LFdep.mp3,,,,audio-keyboard-response,138,244300,,,,,
278,1589724926049,17/05/2020 14:15:26,1589724926728,1,17/05/2020 15:15:26,15519,13,task-q8hp,,4988624,BLIND,1414933,,complete,,5ec1456a35f26d02248ca7f1,computer,Desktop or Laptop,Windows 10,Firefox 76.0,1280x1024,1280x1024,,main exp,56,LF,,,,,,,,,,LF,,,
279,1589724926424,17/05/2020 14:15:26,1589724927167,1,17/05/2020 15:15:27,15519,13,task-q8hp,,4988624,BLIND,1414933,,complete,,5ec1456a35f26d02248ca7f1,computer,Desktop or Laptop,Windows 10,Firefox 76.0,1280x1024,1280x1024,,main exp,56,LF,,/task/70033/56/asset/11875.jpg,,learningBlock2,,image-keyboard-response,139,244741,,LF,/task/70033/56/asset/11875.jpg,/task/70033/56/asset/LFdep.mp3,
280,1589724926486,17/05/2020 14:15:26,1589724927168,1,17/05/2020 15:15:27,15519,13,task-q8hp,,4988624,BLIND,1414933,,complete,,5ec1456a35f26d02248ca7f1,computer,Desktop or Laptop,Windows 10,Firefox 76.0,1280x1024,1280x1024,,main exp,56,LF,,,,,,,,,,LF,,,
281,1589724927134,17/05/2020 14:15:27,1589724927870,1,17/05/2020 15:15:27,15519,13,task-q8hp,,4988624,BLIND,1414933,,complete,,5ec1456a35f26d02248ca7f1,computer,Desktop or Laptop,Windows 10,Firefox 76.0,1280x1024,1280x1024,,main exp,56,LF,,"<div style=""font-size:60px;"">+</div>",,,,html-keyboard-response,140,245444,,,,,
282,1589724927181,17/05/2020 14:15:27,1589724927871,1,17/05/2020 15:15:27,15519,13,task-q8hp,,4988624,BLIND,1414933,,complete,,5ec1456a35f26d02248ca7f1,computer,Desktop or Laptop,Windows 10,Firefox 76.0,1280x1024,1280x1024,,main exp,56,LF,,,,,,,,,,LF,,,
283,1589724928041,17/05/2020 14:15:28,1589724928779,1,17/05/2020 15:15:28,15519,13,task-q8hp,,4988624,BLIND,1414933,,complete,,5ec1456a35f26d02248ca7f1,computer,Desktop or Laptop,Windows 10,Firefox 76.0,1280x1024,1280x1024,,main exp,56,LF,,/task/70033/56/asset/LFdep.mp3,,,,audio-keyboard-response,141,246353,,,,,
284,1589724928103,17/05/2020 14:15:28,1589724928780,1,17/05/2020 15:15:28,15519,13,task-q8hp,,4988624,BLIND,1414933,,complete,,5ec1456a35f26d02248ca7f1,computer,Desktop or Laptop,Windows 10,Firefox 76.0,1280x1024,1280x1024,,main exp,56,LF,,,,,,,,,,LF,,,
285,1589724928478,17/05/2020 14:15:28,1589724929218,1,17/05/2020 15:15:29,15519,13,task-q8hp,,4988624,BLIND,1414933,,complete,,5ec1456a35f26d02248ca7f1,computer,Desktop or Laptop,Windows 10,Firefox 76.0,1280x1024,1280x1024,,main exp,56,LF,,/task/70033/56/asset/12875.jpg,,learningBlock2,,image-keyboard-response,142,246792,,LF,/task/70033/56/asset/12875.jpg,/task/70033/56/asset/LFdep.mp3,
286,1589724928541,17/05/2020 14:15:28,1589724929220,1,17/05/2020 15:15:29,15519,13,task-q8hp,,4988624,BLIND,1414933,,complete,,5ec1456a35f26d02248ca7f1,computer,Desktop or Laptop,Windows 10,Firefox 76.0,1280x1024,1280x1024,,main exp,56,LF,,,,,,,,,,LF,,,
287,1589724929185,17/05/2020 14:15:29,1589724929921,1,17/05/2020 15:15:29,15519,13,task-q8hp,,4988624,BLIND,1414933,,complete,,5ec1456a35f26d02248ca7f1,computer,Desktop or Laptop,Windows 10,Firefox 76.0,1280x1024,1280x1024,,main exp,56,LF,,"<div style=""font-size:60px;"">+</div>",,,,html-keyboard-response,143,247495,,,,,
288,1589724929232,17/05/2020 14:15:29,1589724929923,1,17/05/2020 15:15:29,15519,13,task-q8hp,,4988624,BLIND,1414933,,complete,,5ec1456a35f26d02248ca7f1,computer,Desktop or Laptop,Windows 10,Firefox 76.0,1280x1024,1280x1024,,main exp,56,LF,,,,,,,,,,LF,,,
289,1589724930096,17/05/2020 14:15:30,1589724930831,1,17/05/2020 15:15:30,15519,13,task-q8hp,,4988624,BLIND,1414933,,complete,,5ec1456a35f26d02248ca7f1,computer,Desktop or Laptop,Windows 10,Firefox 76.0,1280x1024,1280x1024,,main exp,56,LF,,/task/70033/56/asset/LFbim.mp3,,,,audio-keyboard-response,144,248404,,,,,
290,1589724930175,17/05/2020 14:15:30,1589724930832,1,17/05/2020 15:15:30,15519,13,task-q8hp,,4988624,BLIND,1414933,,complete,,5ec1456a35f26d02248ca7f1,computer,Desktop or Laptop,Windows 10,Firefox 76.0,1280x1024,1280x1024,,main exp,56,LF,,,,,,,,,,LF,,,
291,1589724930534,17/05/2020 14:15:30,1589724931270,1,17/05/2020 15:15:31,15519,13,task-q8hp,,4988624,BLIND,1414933,,complete,,5ec1456a35f26d02248ca7f1,computer,Desktop or Laptop,Windows 10,Firefox 76.0,1280x1024,1280x1024,,main exp,56,LF,,/task/70033/56/asset/20875.jpg,,learningBlock2,,image-keyboard-response,145,248844,,LF,/task/70033/56/asset/20875.jpg,/task/70033/56/asset/LFbim.mp3,
292,1589724930596,17/05/2020 14:15:30,1589724931271,1,17/05/2020 15:15:31,15519,13,task-q8hp,,4988624,BLIND,1414933,,complete,,5ec1456a35f26d02248ca7f1,computer,Desktop or Laptop,Windows 10,Firefox 76.0,1280x1024,1280x1024,,main exp,56,LF,,,,,,,,,,LF,,,
293,1589724931257,17/05/2020 14:15:31,1589724931973,1,17/05/2020 15:15:31,15519,13,task-q8hp,,4988624,BLIND,1414933,,complete,,5ec1456a35f26d02248ca7f1,computer,Desktop or Laptop,Windows 10,Firefox 76.0,1280x1024,1280x1024,,main exp,56,LF,,"<div style=""font-size:60px;"">+</div>",,,,html-keyboard-response,146,249547,,,,,
294,1589724931319,17/05/2020 14:15:31,1589724931976,1,17/05/2020 15:15:31,15519,13,task-q8hp,,4988624,BLIND,1414933,,complete,,5ec1456a35f26d02248ca7f1,computer,Desktop or Laptop,Windows 10,Firefox 76.0,1280x1024,1280x1024,,main exp,56,LF,,,,,,,,,,LF,,,
295,1589724932225,17/05/2020 14:15:32,1589724932964,1,17/05/2020 15:15:32,15519,13,task-q8hp,,4988624,BLIND,1414933,,complete,,5ec1456a35f26d02248ca7f1,computer,Desktop or Laptop,Windows 10,Firefox 76.0,1280x1024,1280x1024,,main exp,56,LF,,/task/70033/56/asset/LFtob.mp3,,,,audio-keyboard-response,147,250538,,,,,
296,1589724932288,17/05/2020 14:15:32,1589724932966,1,17/05/2020 15:15:32,15519,13,task-q8hp,,4988624,BLIND,1414933,,complete,,5ec1456a35f26d02248ca7f1,computer,Desktop or Laptop,Windows 10,Firefox 76.0,1280x1024,1280x1024,,main exp,56,LF,,,,,,,,,,LF,,,
297,1589724932663,17/05/2020 14:15:32,1589724933403,1,17/05/2020 15:15:33,15519,13,task-q8hp,,4988624,BLIND,1414933,,complete,,5ec1456a35f26d02248ca7f1,computer,Desktop or Laptop,Windows 10,Firefox 76.0,1280x1024,1280x1024,,main exp,56,LF,,/task/70033/56/asset/30675.jpg,,learningBlock2,,image-keyboard-response,148,250977,,LF,/task/70033/56/asset/30675.jpg,/task/70033/56/asset/LFtob.mp3,
298,1589724932710,17/05/2020 14:15:32,1589724933405,1,17/05/2020 15:15:33,15519,13,task-q8hp,,4988624,BLIND,1414933,,complete,,5ec1456a35f26d02248ca7f1,computer,Desktop or Laptop,Windows 10,Firefox 76.0,1280x1024,1280x1024,,main exp,56,LF,,,,,,,,,,LF,,,
299,1589724933372,17/05/2020 14:15:33,1589724934106,1,17/05/2020 15:15:34,15519,13,task-q8hp,,4988624,BLIND,1414933,,complete,,5ec1456a35f26d02248ca7f1,computer,Desktop or Laptop,Windows 10,Firefox 76.0,1280x1024,1280x1024,,main exp,56,LF,,"<div style=""font-size:60px;"">+</div>",,,,html-keyboard-response,149,251680,,,,,
300,1589724933435,17/05/2020 14:15:33,1589724934107,1,17/05/2020 15:15:34,15519,13,task-q8hp,,4988624,BLIND,1414933,,complete,,5ec1456a35f26d02248ca7f1,computer,Desktop or Laptop,Windows 10,Firefox 76.0,1280x1024,1280x1024,,main exp,56,LF,,,,,,,,,,LF,,,
301,1589724934278,17/05/2020 14:15:34,1589724935016,1,17/05/2020 15:15:35,15519,13,task-q8hp,,4988624,BLIND,1414933,,complete,,5ec1456a35f26d02248ca7f1,computer,Desktop or Laptop,Windows 10,Firefox 76.0,1280x1024,1280x1024,,main exp,56,LF,,/task/70033/56/asset/LFdep.mp3,,,,audio-keyboard-response,150,252590,,,,,
302,1589724934372,17/05/2020 14:15:34,1589724935018,1,17/05/2020 15:15:35,15519,13,task-q8hp,,4988624,BLIND,1414933,,complete,,5ec1456a35f26d02248ca7f1,computer,Desktop or Laptop,Windows 10,Firefox 76.0,1280x1024,1280x1024,,main exp,56,LF,,,,,,,,,,LF,,,
303,1589724934716,17/05/2020 14:15:34,1589724935455,1,17/05/2020 15:15:35,15519,13,task-q8hp,,4988624,BLIND,1414933,,complete,,5ec1456a35f26d02248ca7f1,computer,Desktop or Laptop,Windows 10,Firefox 76.0,1280x1024,1280x1024,,main exp,56,LF,,/task/70033/56/asset/10475.jpg,,learningBlock2,,image-keyboard-response,151,253029,,LF,/task/70033/56/asset/10475.jpg,/task/70033/56/asset/LFdep.mp3,
304,1589724934778,17/05/2020 14:15:34,1589724935456,1,17/05/2020 15:15:35,15519,13,task-q8hp,,4988624,BLIND,1414933,,complete,,5ec1456a35f26d02248ca7f1,computer,Desktop or Laptop,Windows 10,Firefox 76.0,1280x1024,1280x1024,,main exp,56,LF,,,,,,,,,,LF,,,
305,1589724935419,17/05/2020 14:15:35,1589724936158,1,17/05/2020 15:15:36,15519,13,task-q8hp,,4988624,BLIND,1414933,,complete,,5ec1456a35f26d02248ca7f1,computer,Desktop or Laptop,Windows 10,Firefox 76.0,1280x1024,1280x1024,,main exp,56,LF,,"<div style=""font-size:60px;"">+</div>",,,,html-keyboard-response,152,253732,,,,,
306,1589724935482,17/05/2020 14:15:35,1589724936159,1,17/05/2020 15:15:36,15519,13,task-q8hp,,4988624,BLIND,1414933,,complete,,5ec1456a35f26d02248ca7f1,computer,Desktop or Laptop,Windows 10,Firefox 76.0,1280x1024,1280x1024,,main exp,56,LF,,,,,,,,,,LF,,,
307,1589724936325,17/05/2020 14:15:36,1589724937068,1,17/05/2020 15:15:37,15519,13,task-q8hp,,4988624,BLIND,1414933,,complete,,5ec1456a35f26d02248ca7f1,computer,Desktop or Laptop,Windows 10,Firefox 76.0,1280x1024,1280x1024,,main exp,56,LF,,/task/70033/56/asset/LFbim.mp3,,,,audio-keyboard-response,153,254642,,,,,
308,1589724936372,17/05/2020 14:15:36,1589724937070,1,17/05/2020 15:15:37,15519,13,task-q8hp,,4988624,BLIND,1414933,,complete,,5ec1456a35f26d02248ca7f1,computer,Desktop or Laptop,Windows 10,Firefox 76.0,1280x1024,1280x1024,,main exp,56,LF,,,,,,,,,,LF,,,
309,1589724936763,17/05/2020 14:15:36,1589724937507,1,17/05/2020 15:15:37,15519,13,task-q8hp,,4988624,BLIND,1414933,,complete,,5ec1456a35f26d02248ca7f1,computer,Desktop or Laptop,Windows 10,Firefox 76.0,1280x1024,1280x1024,,main exp,56,LF,,/task/70033/56/asset/22475.jpg,,learningBlock2,,image-keyboard-response,154,255081,,LF,/task/70033/56/asset/22475.jpg,/task/70033/56/asset/LFbim.mp3,
310,1589724936825,17/05/2020 14:15:36,1589724937508,1,17/05/2020 15:15:37,15519,13,task-q8hp,,4988624,BLIND,1414933,,complete,,5ec1456a35f26d02248ca7f1,computer,Desktop or Laptop,Windows 10,Firefox 76.0,1280x1024,1280x1024,,main exp,56,LF,,,,,,,,,,LF,,,
311,1589724937482,17/05/2020 14:15:37,1589724938211,1,17/05/2020 15:15:38,15519,13,task-q8hp,,4988624,BLIND,1414933,,complete,,5ec1456a35f26d02248ca7f1,computer,Desktop or Laptop,Windows 10,Firefox 76.0,1280x1024,1280x1024,,main exp,56,LF,,"<div style=""font-size:60px;"">+</div>",,,,html-keyboard-response,155,255785,,,,,
312,1589724937544,17/05/2020 14:15:37,1589724938212,1,17/05/2020 15:15:38,15519,13,task-q8hp,,4988624,BLIND,1414933,,complete,,5ec1456a35f26d02248ca7f1,computer,Desktop or Laptop,Windows 10,Firefox 76.0,1280x1024,1280x1024,,main exp,56,LF,,,,,,,,,,LF,,,
313,1589724938482,17/05/2020 14:15:38,1589724939201,1,17/05/2020 15:15:39,15519,13,task-q8hp,,4988624,BLIND,1414933,,complete,,5ec1456a35f26d02248ca7f1,computer,Desktop or Laptop,Windows 10,Firefox 76.0,1280x1024,1280x1024,,main exp,56,LF,,/task/70033/56/asset/LFtob.mp3,,,,audio-keyboard-response,156,256775,,,,,
314,1589724938544,17/05/2020 14:15:38,1589724939203,1,17/05/2020 15:15:39,15519,13,task-q8hp,,4988624,BLIND,1414933,,complete,,5ec1456a35f26d02248ca7f1,computer,Desktop or Laptop,Windows 10,Firefox 76.0,1280x1024,1280x1024,,main exp,56,LF,,,,,,,,,,LF,,,
315,1589724938973,17/05/2020 14:15:38,1589724939642,1,17/05/2020 15:15:39,15519,13,task-q8hp,,4988624,BLIND,1414933,,complete,,5ec1456a35f26d02248ca7f1,computer,Desktop or Laptop,Windows 10,Firefox 76.0,1280x1024,1280x1024,,main exp,56,LF,,,,,,,,,,LF,,,
316,1589724938903,17/05/2020 14:15:38,1589724939642,1,17/05/2020 15:15:39,15519,13,task-q8hp,,4988624,BLIND,1414933,,complete,,5ec1456a35f26d02248ca7f1,computer,Desktop or Laptop,Windows 10,Firefox 76.0,1280x1024,1280x1024,,main exp,56,LF,,/task/70033/56/asset/30175.jpg,,learningBlock2,,image-keyboard-response,157,257216,,LF,/task/70033/56/asset/30175.jpg,/task/70033/56/asset/LFtob.mp3,
317,1589724939599,17/05/2020 14:15:39,1589724940344,1,17/05/2020 15:15:40,15519,13,task-q8hp,,4988624,BLIND,1414933,,complete,,5ec1456a35f26d02248ca7f1,computer,Desktop or Laptop,Windows 10,Firefox 76.0,1280x1024,1280x1024,,main exp,56,LF,,"<div style=""font-size:60px;"">+</div>",,,,html-keyboard-response,158,257918,,,,,
318,1589724939661,17/05/2020 14:15:39,1589724940346,1,17/05/2020 15:15:40,15519,13,task-q8hp,,4988624,BLIND,1414933,,complete,,5ec1456a35f26d02248ca7f1,computer,Desktop or Laptop,Windows 10,Firefox 76.0,1280x1024,1280x1024,,main exp,56,LF,,,,,,,,,,LF,,,
319,1589724940525,17/05/2020 14:15:40,1589724941254,1,17/05/2020 15:15:41,15519,13,task-q8hp,,4988624,BLIND,1414933,,complete,,5ec1456a35f26d02248ca7f1,computer,Desktop or Laptop,Windows 10,Firefox 76.0,1280x1024,1280x1024,,main exp,56,LF,,/task/70033/56/asset/LFbim.mp3,,,,audio-keyboard-response,159,258828,,,,,
320,1589724940587,17/05/2020 14:15:40,1589724941255,1,17/05/2020 15:15:41,15519,13,task-q8hp,,4988624,BLIND,1414933,,complete,,5ec1456a35f26d02248ca7f1,computer,Desktop or Laptop,Windows 10,Firefox 76.0,1280x1024,1280x1024,,main exp,56,LF,,,,,,,,,,LF,,,
321,1589724941025,17/05/2020 14:15:41,1589724941694,1,17/05/2020 15:15:41,15519,13,task-q8hp,,4988624,BLIND,1414933,,complete,,5ec1456a35f26d02248ca7f1,computer,Desktop or Laptop,Windows 10,Firefox 76.0,1280x1024,1280x1024,,main exp,56,LF,,/task/70033/56/asset/22975.jpg,,learningBlock2,,image-keyboard-response,160,259268,,LF,/task/70033/56/asset/22975.jpg,/task/70033/56/asset/LFbim.mp3,
322,1589724941087,17/05/2020 14:15:41,1589724941695,1,17/05/2020 15:15:41,15519,13,task-q8hp,,4988624,BLIND,1414933,,complete,,5ec1456a35f26d02248ca7f1,computer,Desktop or Laptop,Windows 10,Firefox 76.0,1280x1024,1280x1024,,main exp,56,LF,,,,,,,,,,LF,,,
323,1589724941666,17/05/2020 14:15:41,1589724942395,1,17/05/2020 15:15:42,15519,13,task-q8hp,,4988624,BLIND,1414933,,complete,,5ec1456a35f26d02248ca7f1,computer,Desktop or Laptop,Windows 10,Firefox 76.0,1280x1024,1280x1024,,main exp,56,LF,,"<div style=""font-size:60px;"">+</div>",,,,html-keyboard-response,161,259969,,,,,
324,1589724941728,17/05/2020 14:15:41,1589724942397,1,17/05/2020 15:15:42,15519,13,task-q8hp,,4988624,BLIND,1414933,,complete,,5ec1456a35f26d02248ca7f1,computer,Desktop or Laptop,Windows 10,Firefox 76.0,1280x1024,1280x1024,,main exp,56,LF,,,,,,,,,,LF,,,
325,1589724942650,17/05/2020 14:15:42,1589724943387,1,17/05/2020 15:15:43,15519,13,task-q8hp,,4988624,BLIND,1414933,,complete,,5ec1456a35f26d02248ca7f1,computer,Desktop or Laptop,Windows 10,Firefox 76.0,1280x1024,1280x1024,,main exp,56,LF,,/task/70033/56/asset/LFtob.mp3,,,,audio-keyboard-response,162,260961,,,,,
326,1589724942712,17/05/2020 14:15:42,1589724943388,1,17/05/2020 15:15:43,15519,13,task-q8hp,,4988624,BLIND,1414933,,complete,,5ec1456a35f26d02248ca7f1,computer,Desktop or Laptop,Windows 10,Firefox 76.0,1280x1024,1280x1024,,main exp,56,LF,,,,,,,,,,LF,,,
327,1589724943088,17/05/2020 14:15:43,1589724943827,1,17/05/2020 15:15:43,15519,13,task-q8hp,,4988624,BLIND,1414933,,complete,,5ec1456a35f26d02248ca7f1,computer,Desktop or Laptop,Windows 10,Firefox 76.0,1280x1024,1280x1024,,main exp,56,LF,,/task/70033/56/asset/30925.jpg,,learningBlock2,,image-keyboard-response,163,261401,,LF,/task/70033/56/asset/30925.jpg,/task/70033/56/asset/LFtob.mp3,
328,1589724943197,17/05/2020 14:15:43,1589724943829,1,17/05/2020 15:15:43,15519,13,task-q8hp,,4988624,BLIND,1414933,,complete,,5ec1456a35f26d02248ca7f1,computer,Desktop or Laptop,Windows 10,Firefox 76.0,1280x1024,1280x1024,,main exp,56,LF,,,,,,,,,,LF,,,
329,1589724943791,17/05/2020 14:15:43,1589724944530,1,17/05/2020 15:15:44,15519,13,task-q8hp,,4988624,BLIND,1414933,,complete,,5ec1456a35f26d02248ca7f1,computer,Desktop or Laptop,Windows 10,Firefox 76.0,1280x1024,1280x1024,,main exp,56,LF,,"<div style=""font-size:60px;"">+</div>",,,,html-keyboard-response,164,262104,,,,,
330,1589724943853,17/05/2020 14:15:43,1589724944533,1,17/05/2020 15:15:44,15519,13,task-q8hp,,4988624,BLIND,1414933,,complete,,5ec1456a35f26d02248ca7f1,computer,Desktop or Laptop,Windows 10,Firefox 76.0,1280x1024,1280x1024,,main exp,56,LF,,,,,,,,,,LF,,,
331,1589724944793,17/05/2020 14:15:44,1589724945520,1,17/05/2020 15:15:45,15519,13,task-q8hp,,4988624,BLIND,1414933,,complete,,5ec1456a35f26d02248ca7f1,computer,Desktop or Laptop,Windows 10,Firefox 76.0,1280x1024,1280x1024,,main exp,56,LF,,/task/70033/56/asset/LFtob.mp3,,,,audio-keyboard-response,165,263094,,,,,
332,1589724944871,17/05/2020 14:15:44,1589724945521,1,17/05/2020 15:15:45,15519,13,task-q8hp,,4988624,BLIND,1414933,,complete,,5ec1456a35f26d02248ca7f1,computer,Desktop or Laptop,Windows 10,Firefox 76.0,1280x1024,1280x1024,,main exp,56,LF,,,,,,,,,,LF,,,
333,1589724945231,17/05/2020 14:15:45,1589724945959,1,17/05/2020 15:15:45,15519,13,task-q8hp,,4988624,BLIND,1414933,,complete,,5ec1456a35f26d02248ca7f1,computer,Desktop or Laptop,Windows 10,Firefox 76.0,1280x1024,1280x1024,,main exp,56,LF,,/task/70033/56/asset/33475.jpg,,learningBlock2,,image-keyboard-response,166,263533,,LF,/task/70033/56/asset/33475.jpg,/task/70033/56/asset/LFtob.mp3,
334,1589724945293,17/05/2020 14:15:45,1589724945960,1,17/05/2020 15:15:45,15519,13,task-q8hp,,4988624,BLIND,1414933,,complete,,5ec1456a35f26d02248ca7f1,computer,Desktop or Laptop,Windows 10,Firefox 76.0,1280x1024,1280x1024,,main exp,56,LF,,,,,,,,,,LF,,,
335,1589724945926,17/05/2020 14:15:45,1589724946662,1,17/05/2020 15:15:46,15519,13,task-q8hp,,4988624,BLIND,1414933,,complete,,5ec1456a35f26d02248ca7f1,computer,Desktop or Laptop,Windows 10,Firefox 76.0,1280x1024,1280x1024,,main exp,56,LF,,"<div style=""font-size:60px;"">+</div>",,,,html-keyboard-response,167,264236,,,,,
336,1589724945974,17/05/2020 14:15:45,1589724946664,1,17/05/2020 15:15:46,15519,13,task-q8hp,,4988624,BLIND,1414933,,complete,,5ec1456a35f26d02248ca7f1,computer,Desktop or Laptop,Windows 10,Firefox 76.0,1280x1024,1280x1024,,main exp,56,LF,,,,,,,,,,LF,,,
