fribbleID subjID learning task label rt resp trialType trialIndex acc Experiment.Version category frequency cueID bodyShape
10125 1422689 FL generalizationPL bim_tob_dep_ 1938.23999998858 tob audio-button-response 475 NA 14 1 25 eeee barrel
10125 1422476 LF generalizationPL dep_bim_tob_ 840.779999998631 dep audio-button-response 418 NA 14 1 25 eeee barrel
10125 1414957 FL generalizationPL dep_bim_tob_ 527.034999991884 tob audio-button-response 523 NA 14 1 25 eeee barrel
10125 1420165 FL generalizationPL bim_dep_tob_ 2102.80500003137 tob audio-button-response 465 NA 14 1 25 eeee barrel
10125 1431954 LF generalizationPL dep_bim_tob_ 91.0250000015367 bim audio-button-response 478 NA 14 1 25 eeee barrel
10125 1432323 LF generalizationPL dep_bim_tob_ 603 tob audio-button-response 448 NA 14 1 25 eeee barrel
10125 1431961 FL generalizationPL bim_dep_tob_ 680.565000002389 tob audio-button-response 495 NA 14 1 25 eeee barrel
10125 1431966 LF generalizationPL tob_bim_dep_ 1614.03499999142 bim audio-button-response 448 NA 14 1 25 eeee barrel
10125 1459007 FL generalizationPL dep_bim_tob_ 676.960000302643 tob audio-button-response 525 NA 15 1 25 eeee barrel
10125 1422475 LF generalizationPL bim_tob_dep_ 1268.57000001473 tob audio-button-response 448 NA 14 1 25 eeee barrel
10125 1420169 LF generalizationPL dep_bim_tob_ 735.620000166818 dep audio-button-response 448 NA 14 1 25 eeee barrel
10125 1459003 FL generalizationPL bim_tob_dep_ 1287.8100000089 bim audio-button-response 505 NA 15 1 25 eeee barrel
10125 1459057 FL generalizationPL dep_tob_bim_ 911.270000000484 dep audio-button-response 495 NA 15 1 25 eeee barrel
10125 1431952 LF generalizationPL bim_dep_tob_ 747.225000013714 bim audio-button-response 448 NA 14 1 25 eeee barrel
10125 1459699 LF generalizationPL dep_tob_bim_ 2147 bim audio-button-response 498 NA 15 1 25 eeee barrel
10125 1422677 FL generalizationPL bim_tob_dep_ 1026.13499999279 tob audio-button-response 495 NA 14 1 25 eeee barrel
10125 1431959 LF generalizationPL dep_bim_tob_ 1185.63499994343 tob audio-button-response 478 NA 14 1 25 eeee barrel
10175 1431972 FL generalizationPL dep_bim_tob_ 1248.07500001043 dep audio-button-response 440 NA 14 1 75 aaaa jar
10175 1420163 FL generalizationPL bim_tob_dep_ 1640.47499999288 dep audio-button-response 470 NA 14 1 75 aaaa jar
10175 1459064 FL generalizationPL tob_bim_dep_ 1002.00000009499 tob audio-button-response 490 NA 15 1 75 aaaa jar
10175 1422680 LF generalizationPL tob_bim_dep_ 644.934999989346 tob audio-button-response 553 NA 14 1 75 aaaa jar
10175 1422716 FL generalizationPL dep_tob_bim_ 1450.23000007495 dep audio-button-response 410 NA 14 1 75 aaaa jar
10175 1459067 LF generalizationPL dep_bim_tob_ 921.795000089332 dep audio-button-response 523 NA 15 1 75 aaaa jar
10175 1459002 FL generalizationPL tob_bim_dep_ 792.264999821782 bim audio-button-response 500 NA 15 1 75 aaaa jar
10175 1422466 FL generalizationPL dep_tob_bim_ 1045.59500003234 tob audio-button-response 410 NA 14 1 75 aaaa jar
10175 1459015 LF generalizationPL dep_tob_bim_ 1662.58499998366 dep audio-button-response 493 NA 15 1 75 aaaa jar
10225 1431974 FL generalizationPL tob_dep_bim_ 1073.71500006411 bim audio-button-response 415 NA 14 1 25 ffff barrel
10225 1422477 FL generalizationPL tob_dep_bim_ 1410.81500001019 dep audio-button-response 465 NA 14 1 25 ffff barrel
10225 1420552 LF generalizationPL dep_tob_bim_ 700.40999999037 bim audio-button-response 448 NA 14 1 25 ffff barrel
10225 1458997 LF generalizationPL dep_tob_bim_ NA NA audio-button-response 468 NA 15 1 25 ffff barrel
10225 1432323 LF generalizationPL dep_bim_tob_ 786 dep audio-button-response 508 NA 14 1 25 ffff barrel
10225 1422463 FL generalizationPL tob_dep_bim_ 445.035000000731 tob audio-button-response 465 NA 14 1 25 ffff barrel
10225 1459767 FL generalizationPL tob_bim_dep_ 755.205000001239 dep audio-button-response 555 NA 15 1 25 ffff barrel
10225 1431992 FL generalizationPL bim_dep_tob_ 469 dep audio-button-response 525 NA 14 1 25 ffff barrel
10225 1414957 FL generalizationPL bim_dep_tob_ 657.964999991236 tob audio-button-response 493 NA 14 1 25 ffff barrel
10225 1420185 LF generalizationPL bim_tob_dep_ 1478.13000017777 tob audio-button-response 558 NA 14 1 25 ffff barrel
10225 1431984 FL generalizationPL dep_bim_tob_ 228.484999854118 dep audio-button-response 475 NA 14 1 25 ffff barrel
10225 1431999 LF generalizationPL dep_bim_tob_ 543.894999980694 tob audio-button-response 418 NA 14 1 25 ffff barrel
10225 1459002 FL generalizationPL dep_bim_tob_ 756.580000044778 dep audio-button-response 475 NA 15 1 25 ffff barrel
10225 1459706 FL generalizationPL tob_dep_bim_ 714.715000009164 bim audio-button-response 475 NA 15 1 25 ffff barrel
10225 1420580 FL generalizationPL bim_tob_dep_ 797.650000022259 dep audio-button-response 525 NA 14 1 25 ffff barrel
10225 1431944 FL generalizationPL bim_tob_dep_ 1206.51000000024 dep audio-button-response 555 NA 14 1 25 ffff barrel
10225 1422467 LF generalizationPL bim_dep_tob_ 639.644999988377 dep audio-button-response 508 NA 14 1 25 ffff barrel
10225 1432052 FL generalizationPL bim_tob_dep_ 662.895000015851 bim audio-button-response 505 NA 14 1 25 ffff barrel
10225 1457883 LF generalizationPL dep_bim_tob_ 551.195000007283 tob audio-button-response 528 NA 15 1 25 ffff barrel
10225 1459024 FL generalizationPL bim_tob_dep_ 1233.89000000316 bim audio-button-response 525 NA 15 1 25 ffff barrel
10225 1459036 LF generalizationPL dep_tob_bim_ 1342.56500005722 bim audio-button-response 448 NA 15 1 25 ffff barrel
10275 1458992 FL generalizationPL tob_dep_bim_ 1981.90000001341 dep audio-button-response 490 NA 15 1 75 abbb jar
10275 1431961 FL generalizationPL dep_tob_bim_ NA NA audio-button-response 460 NA 14 1 75 abbb jar
10275 1414957 FL generalizationPL dep_bim_tob_ 1057.80999999843 dep audio-button-response 518 NA 14 1 75 abbb jar
10275 1431997 FL generalizationPL bim_dep_tob_ 1193.99000005797 dep audio-button-response 440 NA 14 1 75 abbb jar
10275 1414933 LF generalizationPL dep_tob_bim_ 1268 dep audio-button-response 461 NA 14 1 75 abbb jar
10275 1459025 LF generalizationPL bim_tob_dep_ 1306.23999983072 tob audio-button-response 503 NA 15 1 75 abbb jar
10275 1459701 LF generalizationPL bim_tob_dep_ NA NA audio-button-response 463 NA 15 1 75 abbb jar
10275 1458997 LF generalizationPL dep_tob_bim_ 1832.42500002962 bim audio-button-response 463 NA 15 1 75 abbb jar
10275 1459024 FL generalizationPL dep_tob_bim_ 210.464999981923 dep audio-button-response 550 NA 15 1 75 abbb jar
10275 1459706 FL generalizationPL bim_dep_tob_ 755.004999984521 bim audio-button-response 500 NA 15 1 75 abbb jar
10275 1431968 LF generalizationPL dep_tob_bim_ 676.044999971054 dep audio-button-response 523 NA 14 1 75 abbb jar
10275 1432301 LF generalizationPL dep_tob_bim_ 762.925000002724 dep audio-button-response 503 NA 14 1 75 abbb jar
10275 1459078 LF generalizationPL dep_bim_tob_ NA NA audio-button-response 463 NA 15 1 75 abbb jar
10275 1420577 LF generalizationPL bim_tob_dep_ NA NA audio-button-response 413 NA 14 1 75 abbb jar
10275 1431972 FL generalizationPL tob_bim_dep_ 582.379999978002 bim audio-button-response 500 NA 14 1 75 abbb jar
10275 1422477 FL generalizationPL dep_bim_tob_ 831.825000001118 dep audio-button-response 550 NA 14 1 75 abbb jar
10275 1459697 FL generalizationPL tob_bim_dep_ 401.5 bim audio-button-response 520 NA 15 1 75 abbb jar
10275 1431944 FL generalizationPL bim_tob_dep_ 404.490000000689 dep audio-button-response 550 NA 14 1 75 abbb jar
10325 1459696 FL generalizationPL bim_dep_tob_ 84.6650000021327 bim audio-button-response 484 NA 15 1 25 efgf barrel
10325 1459057 FL generalizationPL bim_dep_tob_ 561.74999999709 bim audio-button-response 525 NA 15 1 25 efgf barrel
10325 1459024 FL generalizationPL dep_tob_bim_ 436.239999980899 tob audio-button-response 465 NA 15 1 25 efgf barrel
10325 1432301 LF generalizationPL dep_bim_tob_ 516.385000009905 tob audio-button-response 478 NA 14 1 25 efgf barrel
10325 1420199 FL generalizationPL bim_dep_tob_ 1325.70999997552 tob audio-button-response 505 NA 14 1 25 efgf barrel
10325 1459007 FL generalizationPL bim_tob_dep_ 792.339999694377 tob audio-button-response 555 NA 15 1 25 efgf barrel
10325 1431953 FL generalizationPL tob_bim_dep_ 1409.20500003267 dep audio-button-response 505 NA 14 1 25 efgf barrel
10325 1432011 FL generalizationPL bim_tob_dep_ 598.405000288039 bim audio-button-response 475 NA 14 1 25 efgf barrel
10325 1422689 FL generalizationPL bim_dep_tob_ 1656.66999999667 tob audio-button-response 415 NA 14 1 25 efgf barrel
10325 1459025 LF generalizationPL dep_tob_bim_ 902.995000127703 bim audio-button-response 478 NA 15 1 25 efgf barrel
10325 1422716 FL generalizationPL dep_tob_bim_ 1962.50499994494 tob audio-button-response 415 NA 14 1 25 efgf barrel
10325 1431960 LF generalizationPL bim_tob_dep_ 1338.39499996975 dep audio-button-response 498 NA 14 1 25 efgf barrel
10325 1420177 FL generalizationPL tob_dep_bim_ 634.34000001871 dep audio-button-response 475 NA 14 1 25 efgf barrel
10325 1420171 LF generalizationPL bim_tob_dep_ NA NA audio-button-response 418 NA 14 1 25 efgf barrel
10325 1431998 LF generalizationPL dep_bim_tob_ 1199.09999999974 tob audio-button-response 558 NA 14 1 25 efgf barrel
10325 1458997 LF generalizationPL tob_bim_dep_ 1986.22999992222 tob audio-button-response 558 NA 15 1 25 efgf barrel
10325 1420180 FL generalizationPL dep_bim_tob_ 896.070000000007 bim audio-button-response 415 NA 14 1 25 efgf barrel
10325 1431970 LF generalizationPL bim_tob_dep_ 1310.30000001192 tob audio-button-response 558 NA 14 1 25 efgf barrel
10325 1458996 LF generalizationPL bim_dep_tob_ 1079.90500000055 dep audio-button-response 418 NA 15 1 25 efgf barrel
10325 1422463 FL generalizationPL tob_bim_dep_ 635.510000000009 tob audio-button-response 555 NA 14 1 25 efgf barrel
10325 1431963 LF generalizationPL tob_bim_dep_ NA NA audio-button-response 418 NA 14 1 25 efgf barrel
10325 1422679 FL generalizationPL dep_tob_bim_ 128.470000112429 dep audio-button-response 555 NA 14 1 25 efgf barrel
10375 1422678 LF generalizationPL bim_dep_tob_ 395.720000000438 dep audio-button-response 443 NA 14 1 75 aaac jar
10375 1459696 FL generalizationPL bim_dep_tob_ 391.134999983478 tob audio-button-response 509 NA 15 1 75 aaac jar
10375 1432003 LF generalizationPL tob_dep_bim_ 1599 dep audio-button-response 553 NA 14 1 75 aaac jar
10375 1422675 FL generalizationPL dep_tob_bim_ 2458.14999999129 dep audio-button-response 470 NA 14 1 75 aaac jar
10375 1420552 LF generalizationPL tob_dep_bim_ NA NA audio-button-response 413 NA 14 1 75 aaac jar
10375 1431965 FL generalizationPL bim_tob_dep_ 1224 dep audio-button-response 550 NA 14 1 75 aaac jar
10375 1459024 FL generalizationPL bim_tob_dep_ 505.310000007739 bim audio-button-response 520 NA 15 1 75 aaac jar
10375 1431960 LF generalizationPL bim_tob_dep_ 829.420000081882 dep audio-button-response 553 NA 14 1 75 aaac jar
10375 1431970 LF generalizationPL tob_dep_bim_ 1351.28000000259 dep audio-button-response 463 NA 14 1 75 aaac jar
10375 1459700 LF generalizationPL bim_tob_dep_ 987.625000008848 dep audio-button-response 503 NA 15 1 75 aaac jar
10375 1459701 LF generalizationPL tob_dep_bim_ 1603.05500001414 dep audio-button-response 493 NA 15 1 75 aaac jar
10375 1431999 LF generalizationPL dep_bim_tob_ 1685.8249999932 dep audio-button-response 413 NA 14 1 75 aaac jar
10375 1431984 FL generalizationPL tob_dep_bim_ 485.885000322014 dep audio-button-response 440 NA 14 1 75 aaac jar
10375 1420163 FL generalizationPL dep_bim_tob_ 1708.40000000317 dep audio-button-response 440 NA 14 1 75 aaac jar
10375 1459015 LF generalizationPL tob_bim_dep_ 1171.59500002163 tob audio-button-response 523 NA 15 1 75 aaac jar
10425 1422467 LF generalizationPL tob_bim_dep_ 1246.28500000108 dep audio-button-response 448 NA 14 1 25 fgfg barrel
10425 1459700 LF generalizationPL tob_bim_dep_ 1846.72499998123 bim audio-button-response 478 NA 15 1 25 fgfg barrel
10425 1459048 FL generalizationPL bim_tob_dep_ 757 dep audio-button-response 495 NA 15 1 25 fgfg barrel
10425 1459064 FL generalizationPL dep_bim_tob_ 651.000000070781 tob audio-button-response 555 NA 15 1 25 fgfg barrel
10425 1415040 FL generalizationPL tob_dep_bim_ 2324 dep audio-button-response 493 NA 14 1 25 fgfg barrel
10425 1459052 FL generalizationPL tob_dep_bim_ 707.090000156313 dep audio-button-response 525 NA 15 1 25 fgfg barrel
10425 1431979 FL generalizationPL dep_tob_bim_ 629 bim audio-button-response 505 NA 14 1 25 fgfg barrel
10425 1459001 FL generalizationPL bim_dep_tob_ 1090.95499999239 tob audio-button-response 525 NA 15 1 25 fgfg barrel
10425 1422681 LF generalizationPL bim_tob_dep_ 356.139999999898 tob audio-button-response 478 NA 14 1 25 fgfg barrel
10425 1459046 LF generalizationPL tob_bim_dep_ 2132 bim audio-button-response 448 NA 15 1 25 fgfg barrel
10425 1431957 FL generalizationPL tob_bim_dep_ 1443.36999999359 bim audio-button-response 505 NA 14 1 25 fgfg barrel
10425 1431981 LF generalizationPL dep_bim_tob_ 600.789999996778 dep audio-button-response 508 NA 14 1 25 fgfg barrel
10425 1431997 FL generalizationPL bim_tob_dep_ 894.164999946952 dep audio-button-response 505 NA 14 1 25 fgfg barrel
10425 1431999 LF generalizationPL tob_bim_dep_ 821.66500002495 dep audio-button-response 478 NA 14 1 25 fgfg barrel
10425 1420552 LF generalizationPL tob_dep_bim_ 444.01499995729 dep audio-button-response 418 NA 14 1 25 fgfg barrel
10475 1422475 LF generalizationPL bim_tob_dep_ 1283.5999999661 dep audio-button-response 443 NA 14 1 75 bcbc jar
10475 1431992 FL generalizationPL tob_bim_dep_ 863 tob audio-button-response 490 NA 14 1 75 bcbc jar
10475 1459696 FL generalizationPL bim_dep_tob_ 1014.76000002003 tob audio-button-response 539 NA 15 1 75 bcbc jar
10475 1459018 FL generalizationPL dep_bim_tob_ 667.060000007041 dep audio-button-response 520 NA 15 1 75 bcbc jar
10475 1431953 FL generalizationPL tob_bim_dep_ 1323.0400000466 dep audio-button-response 410 NA 14 1 75 bcbc jar
10475 1415040 FL generalizationPL tob_dep_bim_ 346 dep audio-button-response 518 NA 14 1 75 bcbc jar
10475 1420171 LF generalizationPL dep_tob_bim_ NA NA audio-button-response 443 NA 14 1 75 bcbc jar
10475 1432011 FL generalizationPL bim_tob_dep_ 213.345000054687 tob audio-button-response 470 NA 14 1 75 bcbc jar
10525 1420622 FL generalizationPL dep_tob_bim_ 1694.11499984562 tob audio-button-response 415 NA 14 1 25 hfee barrel
10525 1431981 LF generalizationPL tob_dep_bim_ 1139.78999998653 tob audio-button-response 478 NA 14 1 25 hfee barrel
10525 1459057 FL generalizationPL dep_bim_tob_ 1132.13499999989 bim audio-button-response 555 NA 15 1 25 hfee barrel
10525 1431969 FL generalizationPL bim_tob_dep_ 793 tob audio-button-response 505 NA 14 1 25 hfee barrel
10525 1431965 FL generalizationPL bim_tob_dep_ 1772 bim audio-button-response 555 NA 14 1 25 hfee barrel
10525 1459709 LF generalizationPL dep_bim_tob_ 2398.65499990992 tob audio-button-response 448 NA 15 1 25 hfee barrel
10525 1431979 FL generalizationPL bim_tob_dep_ 980 tob audio-button-response 415 NA 14 1 25 hfee barrel
10525 1422467 LF generalizationPL tob_dep_bim_ 1770.9699999541 tob audio-button-response 418 NA 14 1 25 hfee barrel
10525 1459020 LF generalizationPL dep_tob_bim_ 858.880000000237 bim audio-button-response 508 NA 15 1 25 hfee barrel
10525 1431978 FL generalizationPL tob_dep_bim_ 1705.73000000149 dep audio-button-response 525 NA 14 1 25 hfee barrel
10525 1459003 FL generalizationPL bim_dep_tob_ 1411.19999997318 tob audio-button-response 475 NA 15 1 25 hfee barrel
10525 1459039 LF generalizationPL tob_bim_dep_ 850 dep audio-button-response 528 NA 15 1 25 hfee barrel
10525 1459046 LF generalizationPL bim_tob_dep_ 2033 dep audio-button-response 418 NA 15 1 25 hfee barrel
10525 1431963 LF generalizationPL dep_tob_bim_ 652.174999995623 dep audio-button-response 448 NA 14 1 25 hfee barrel
10525 1459047 FL generalizationPL tob_dep_bim_ 150.100000028033 tob audio-button-response 555 NA 15 1 25 hfee barrel
10525 1422679 FL generalizationPL bim_dep_tob_ 711.340000154451 dep audio-button-response 495 NA 14 1 25 hfee barrel
10525 1459067 LF generalizationPL dep_bim_tob_ 1202.00499985367 tob audio-button-response 558 NA 15 1 25 hfee barrel
10525 1459015 LF generalizationPL tob_bim_dep_ 280.440000002272 tob audio-button-response 468 NA 15 1 25 hfee barrel
10525 1431989 LF generalizationPL bim_dep_tob_ 1354.35500007588 dep audio-button-response 558 NA 14 1 25 hfee barrel
10525 1459043 LF generalizationPL dep_bim_tob_ 859 tob audio-button-response 508 NA 15 1 25 hfee barrel
10525 1431960 LF generalizationPL bim_dep_tob_ NA NA audio-button-response 468 NA 14 1 25 hfee barrel
10525 1422477 FL generalizationPL bim_tob_dep_ 721.079999988433 tob audio-button-response 525 NA 14 1 25 hfee barrel
10525 1432052 FL generalizationPL tob_dep_bim_ 338.355000014417 tob audio-button-response 475 NA 14 1 25 hfee barrel
10575 1459708 FL generalizationPL tob_bim_dep_ 942.375000013271 bim audio-button-response 440 NA 15 1 75 baac jar
10575 1459703 FL generalizationPL dep_bim_tob_ 353.690000018105 dep audio-button-response 500 NA 15 1 75 baac jar
10575 1422677 FL generalizationPL dep_tob_bim_ 933.755000005476 dep audio-button-response 550 NA 14 1 75 baac jar
10575 1459009 FL generalizationPL bim_dep_tob_ 2130.21500000107 dep audio-button-response 410 NA 15 1 75 baac jar
10575 1431961 FL generalizationPL bim_tob_dep_ 419.050000011339 bim audio-button-response 550 NA 14 1 75 baac jar
10575 1459047 FL generalizationPL bim_tob_dep_ 657.260000007227 dep audio-button-response 520 NA 15 1 75 baac jar
10575 1459015 LF generalizationPL tob_bim_dep_ 2191.15500000771 bim audio-button-response 463 NA 15 1 75 baac jar
10575 1431984 FL generalizationPL dep_bim_tob_ 112.00000019744 dep audio-button-response 470 NA 14 1 75 baac jar
10575 1432030 LF generalizationPL bim_tob_dep_ 1316.10500000534 dep audio-button-response 503 NA 14 1 75 baac jar
10575 1414945 FL generalizationPL bim_tob_dep_ 1924.63999986649 dep audio-button-response 458 NA 14 1 75 baac jar
10575 1420165 FL generalizationPL bim_dep_tob_ NA NA audio-button-response 460 NA 14 1 75 baac jar
10575 1431953 FL generalizationPL dep_tob_bim_ 589.754999964498 dep audio-button-response 470 NA 14 1 75 baac jar
10575 1459043 LF generalizationPL tob_bim_dep_ NA NA audio-button-response 413 NA 15 1 75 baac jar
10575 1459697 FL generalizationPL bim_tob_dep_ 1742.72500000009 bim audio-button-response 460 NA 15 1 75 baac jar
10575 1432301 LF generalizationPL bim_dep_tob_ 1081.91500000248 dep audio-button-response 443 NA 14 1 75 baac jar
10575 1431944 FL generalizationPL bim_tob_dep_ 1064.49500000244 tob audio-button-response 490 NA 14 1 75 baac jar
10575 1420169 LF generalizationPL tob_dep_bim_ 1636.53500005603 dep audio-button-response 413 NA 14 1 75 baac jar
10625 1420185 LF generalizationPL dep_bim_tob_ 1237.02500015497 dep audio-button-response 528 NA 14 1 25 hffe barrel
10625 1459020 LF generalizationPL tob_bim_dep_ 1033.52500000031 bim audio-button-response 418 NA 15 1 25 hffe barrel
10625 1431946 FL generalizationPL bim_tob_dep_ 1243.83500000113 tob audio-button-response 465 NA 14 1 25 hffe barrel
10625 1422470 LF generalizationPL tob_dep_bim_ 855.110000004061 tob audio-button-response 468 NA 14 1 25 hffe barrel
10625 1459002 FL generalizationPL tob_bim_dep_ 1598.35999994539 dep audio-button-response 505 NA 15 1 25 hffe barrel
10625 1459052 FL generalizationPL bim_dep_tob_ 746.414999943227 tob audio-button-response 555 NA 15 1 25 hffe barrel
10625 1459025 LF generalizationPL bim_tob_dep_ 934.995000017807 bim audio-button-response 508 NA 15 1 25 hffe barrel
10625 1420204 LF generalizationPL dep_bim_tob_ 2443.69500000007 tob audio-button-response 508 NA 14 1 25 hffe barrel
10625 1432011 FL generalizationPL tob_bim_dep_ 1844.38000014052 bim audio-button-response 415 NA 14 1 25 hffe barrel
10625 1431997 FL generalizationPL bim_dep_tob_ 1783.00500009209 dep audio-button-response 415 NA 14 1 25 hffe barrel
10625 1459109 LF generalizationPL dep_bim_tob_ 2088.10000005178 bim audio-button-response 528 NA 15 1 25 hffe barrel
10625 1422679 FL generalizationPL dep_tob_bim_ 1442.07000010647 dep audio-button-response 465 NA 14 1 25 hffe barrel
10625 1431969 FL generalizationPL bim_tob_dep_ 806 dep audio-button-response 445 NA 14 1 25 hffe barrel
10625 1422475 LF generalizationPL tob_bim_dep_ NA NA audio-button-response 418 NA 14 1 25 hffe barrel
10625 1420163 FL generalizationPL bim_tob_dep_ 2271.37500001118 tob audio-button-response 475 NA 14 1 25 hffe barrel
10625 1459029 FL generalizationPL dep_tob_bim_ 995.33499999973 tob audio-button-response 525 NA 15 1 25 hffe barrel
10625 1414932 LF generalizationPL bim_dep_tob_ 1424.03500000364 dep audio-button-response 466 NA 14 1 25 hffe barrel
10625 1431957 FL generalizationPL dep_tob_bim_ 1380.35500000115 tob audio-button-response 445 NA 14 1 25 hffe barrel
10625 1458992 FL generalizationPL dep_tob_bim_ 168.244999833405 tob audio-button-response 555 NA 15 1 25 hffe barrel
10625 1431961 FL generalizationPL dep_tob_bim_ 631.550000005518 tob audio-button-response 465 NA 14 1 25 hffe barrel
10675 1422681 LF generalizationPL bim_dep_tob_ 1860.35999999876 dep audio-button-response 443 NA 14 1 75 cbcd jar
10675 1458996 LF generalizationPL bim_tob_dep_ 380.300000000745 bim audio-button-response 503 NA 15 1 75 cbcd jar
10675 1458997 LF generalizationPL bim_dep_tob_ 345.710000023246 bim audio-button-response 523 NA 15 1 75 cbcd jar
10675 1422472 FL generalizationPL dep_tob_bim_ 865.499999999884 dep audio-button-response 520 NA 14 1 75 cbcd jar
10675 1459020 LF generalizationPL dep_tob_bim_ 913.695000000182 tob audio-button-response 503 NA 15 1 75 cbcd jar
10675 1422675 FL generalizationPL tob_bim_dep_ 961.204999999609 dep audio-button-response 440 NA 14 1 75 cbcd jar
10675 1459078 LF generalizationPL bim_dep_tob_ 1816.3899999999 dep audio-button-response 523 NA 15 1 75 cbcd jar
10675 1431954 LF generalizationPL tob_dep_bim_ 5.05000000703149 tob audio-button-response 443 NA 14 1 75 cbcd jar
10675 1422473 LF generalizationPL tob_dep_bim_ 1863.81999996956 dep audio-button-response 413 NA 14 1 75 cbcd jar
10675 1420573 LF generalizationPL bim_tob_dep_ 449 bim audio-button-response 463 NA 14 1 75 cbcd jar
10675 1422467 LF generalizationPL tob_dep_bim_ 1732.98000008799 tob audio-button-response 413 NA 14 1 75 cbcd jar
10675 1459024 FL generalizationPL dep_tob_bim_ 1802.45999997715 tob audio-button-response 460 NA 15 1 75 cbcd jar
10675 1431949 FL generalizationPL dep_tob_bim_ 882.480000029318 dep audio-button-response 520 NA 14 1 75 cbcd jar
10675 1459046 LF generalizationPL tob_bim_dep_ 733 dep audio-button-response 503 NA 15 1 75 cbcd jar
10675 1420199 FL generalizationPL dep_bim_tob_ 1397.89999998175 tob audio-button-response 440 NA 14 1 75 cbcd jar
10675 1420165 FL generalizationPL bim_tob_dep_ 674.044999992475 dep audio-button-response 550 NA 14 1 75 cbcd jar
10725 1459047 FL generalizationPL bim_dep_tob_ 381.445000006352 tob audio-button-response 495 NA 15 1 25 heef barrel
10725 1422470 LF generalizationPL bim_tob_dep_ 440.895000007004 tob audio-button-response 498 NA 14 1 25 heef barrel
10725 1459700 LF generalizationPL bim_tob_dep_ 1196.5799999889 tob audio-button-response 418 NA 15 1 25 heef barrel
10725 1431969 FL generalizationPL dep_tob_bim_ 1109 dep audio-button-response 475 NA 14 1 25 heef barrel
10725 1459001 FL generalizationPL bim_tob_dep_ 515.674999987823 tob audio-button-response 495 NA 15 1 25 heef barrel
10725 1431978 FL generalizationPL dep_bim_tob_ 1122.09000000439 dep audio-button-response 555 NA 14 1 25 heef barrel
10725 1459696 FL generalizationPL bim_dep_tob_ 516.800000012154 dep audio-button-response 544 NA 15 1 25 heef barrel
10725 1431949 FL generalizationPL bim_dep_tob_ 564.14000003133 dep audio-button-response 555 NA 14 1 25 heef barrel
10725 1422677 FL generalizationPL dep_tob_bim_ 2315.04499999573 bim audio-button-response 555 NA 14 1 25 heef barrel
10725 1415040 FL generalizationPL dep_bim_tob_ 1106 bim audio-button-response 463 NA 14 1 25 heef barrel
10725 1431968 LF generalizationPL dep_tob_bim_ 908.455000026152 dep audio-button-response 528 NA 14 1 25 heef barrel
10725 1431944 FL generalizationPL bim_tob_dep_ 1310.54999999795 dep audio-button-response 495 NA 14 1 25 heef barrel
10725 1431948 LF generalizationPL dep_bim_tob_ 1820 dep audio-button-response 508 NA 14 1 25 heef barrel
10725 1431970 LF generalizationPL bim_tob_dep_ 727.290000009816 tob audio-button-response 528 NA 14 1 25 heef barrel
10725 1422477 FL generalizationPL dep_tob_bim_ 999.544999998761 bim audio-button-response 495 NA 14 1 25 heef barrel
10725 1420573 LF generalizationPL dep_bim_tob_ 496 tob audio-button-response 528 NA 14 1 25 heef barrel
10725 1431953 FL generalizationPL dep_tob_bim_ 630.859999917448 tob audio-button-response 475 NA 14 1 25 heef barrel
10725 1459703 FL generalizationPL dep_bim_tob_ 778.649999992922 tob audio-button-response 445 NA 15 1 25 heef barrel
10725 1431954 LF generalizationPL tob_dep_bim_ 1038.79000002053 tob audio-button-response 448 NA 14 1 25 heef barrel
10725 1432052 FL generalizationPL dep_tob_bim_ 1360.74999999255 bim audio-button-response 415 NA 14 1 25 heef barrel
10725 1422472 FL generalizationPL tob_bim_dep_ 884.724999996135 dep audio-button-response 495 NA 14 1 25 heef barrel
10775 1422466 FL generalizationPL dep_tob_bim_ 293.109999969602 bim audio-button-response 440 NA 14 1 75 ccbc jar
10775 1431992 FL generalizationPL tob_dep_bim_ 412 dep audio-button-response 550 NA 14 1 75 ccbc jar
10775 1431979 FL generalizationPL dep_tob_bim_ 666 dep audio-button-response 500 NA 14 1 75 ccbc jar
10775 1414957 FL generalizationPL bim_tob_dep_ 818.605000007665 dep audio-button-response 548 NA 14 1 75 ccbc jar
10775 1420177 FL generalizationPL dep_bim_tob_ 295.699999987846 dep audio-button-response 440 NA 14 1 75 ccbc jar
10775 1459007 FL generalizationPL dep_bim_tob_ 2129.1400003247 tob audio-button-response 520 NA 15 1 75 ccbc jar
10775 1457883 LF generalizationPL dep_bim_tob_ 1305.83500000648 dep audio-button-response 493 NA 15 1 75 ccbc jar
10775 1420573 LF generalizationPL bim_tob_dep_ 870 dep audio-button-response 553 NA 14 1 75 ccbc jar
10775 1459057 FL generalizationPL bim_dep_tob_ 742.369999999879 dep audio-button-response 520 NA 15 1 75 ccbc jar
10775 1459047 FL generalizationPL tob_dep_bim_ 1687.73999996483 dep audio-button-response 460 NA 15 1 75 ccbc jar
10775 1422715 LF generalizationPL tob_dep_bim_ 953.379999962635 dep audio-button-response 503 NA 14 1 75 ccbc jar
10775 1459048 FL generalizationPL bim_tob_dep_ 684 bim audio-button-response 490 NA 15 1 75 ccbc jar
10775 1459013 FL generalizationPL dep_tob_bim_ 568 bim audio-button-response 500 NA 15 1 75 ccbc jar
10775 1432003 LF generalizationPL tob_dep_bim_ 632 dep audio-button-response 493 NA 14 1 75 ccbc jar
10775 1422472 FL generalizationPL bim_tob_dep_ 1806.8100000018 dep audio-button-response 550 NA 14 1 75 ccbc jar
10775 1414945 FL generalizationPL tob_dep_bim_ 726.885000243783 dep audio-button-response 518 NA 14 1 75 ccbc jar
10775 1431954 LF generalizationPL tob_dep_bim_ 893.14000000013 bim audio-button-response 413 NA 14 1 75 ccbc jar
10825 1431970 LF generalizationPL tob_dep_bim_ 785.099999979138 bim audio-button-response 468 NA 14 1 25 eggg barrel
10825 1432009 FL generalizationPL bim_tob_dep_ 568 tob audio-button-response 495 NA 14 1 25 eggg barrel
10825 1459002 FL generalizationPL dep_bim_tob_ 1967.70500019193 bim audio-button-response 415 NA 15 1 25 eggg barrel
10825 1459709 LF generalizationPL bim_tob_dep_ 1183.24499996379 dep audio-button-response 478 NA 15 1 25 eggg barrel
10825 1420177 FL generalizationPL tob_bim_dep_ 1093.1199999759 tob audio-button-response 505 NA 14 1 25 eggg barrel
10825 1459078 LF generalizationPL bim_dep_tob_ 1253.95000000007 dep audio-button-response 528 NA 15 1 25 eggg barrel
10825 1459009 FL generalizationPL tob_dep_bim_ NA NA audio-button-response 475 NA 15 1 25 eggg barrel
10825 1459039 LF generalizationPL tob_dep_bim_ 1398 dep audio-button-response 468 NA 15 1 25 eggg barrel
10825 1431966 LF generalizationPL bim_dep_tob_ 356.830000004265 bim audio-button-response 478 NA 14 1 25 eggg barrel
10825 1459697 FL generalizationPL bim_tob_dep_ 796.484999998938 dep audio-button-response 465 NA 15 1 25 eggg barrel
10825 1422475 LF generalizationPL bim_dep_tob_ 1528.46999996109 tob audio-button-response 478 NA 14 1 25 eggg barrel
10825 1420180 FL generalizationPL bim_dep_tob_ 442.424999999988 tob audio-button-response 445 NA 14 1 25 eggg barrel
10825 1459029 FL generalizationPL tob_bim_dep_ 831.069999992847 dep audio-button-response 555 NA 15 1 25 eggg barrel
10825 1431974 FL generalizationPL tob_bim_dep_ 599.449999979697 tob audio-button-response 475 NA 14 1 25 eggg barrel
10825 1422678 LF generalizationPL bim_dep_tob_ 1018.63000000233 tob audio-button-response 448 NA 14 1 25 eggg barrel
10825 1420622 FL generalizationPL dep_tob_bim_ NA NA audio-button-response 475 NA 14 1 25 eggg barrel
10825 1459703 FL generalizationPL dep_tob_bim_ 978.619999950752 dep audio-button-response 415 NA 15 1 25 eggg barrel
10825 1459052 FL generalizationPL dep_tob_bim_ 686.685000080615 tob audio-button-response 465 NA 15 1 25 eggg barrel
10825 1431992 FL generalizationPL tob_bim_dep_ 1099 dep audio-button-response 495 NA 14 1 25 eggg barrel
10825 1459702 FL generalizationPL bim_tob_dep_ 773 dep audio-button-response 525 NA 15 1 25 eggg barrel
10825 1431960 LF generalizationPL bim_tob_dep_ NA NA audio-button-response 558 NA 14 1 25 eggg barrel
10825 1414957 FL generalizationPL bim_tob_dep_ 623.240000000806 tob audio-button-response 553 NA 14 1 25 eggg barrel
10875 1432323 LF generalizationPL bim_tob_dep_ 1537 dep audio-button-response 413 NA 14 1 75 abca jar
10875 1459700 LF generalizationPL bim_tob_dep_ 1816.26500000129 dep audio-button-response 413 NA 15 1 75 abca jar
10875 1420580 FL generalizationPL tob_dep_bim_ 2157.26499998709 dep audio-button-response 460 NA 14 1 75 abca jar
10875 1432301 LF generalizationPL dep_bim_tob_ 433.415000006789 dep audio-button-response 473 NA 14 1 75 abca jar
10875 1422463 FL generalizationPL tob_bim_dep_ 977.739999998477 dep audio-button-response 550 NA 14 1 75 abca jar
10875 1459699 LF generalizationPL bim_dep_tob_ 358 dep audio-button-response 523 NA 15 1 75 abca jar
10875 1431944 FL generalizationPL bim_tob_dep_ 867.744999999646 tob audio-button-response 520 NA 14 1 75 abca jar
10875 1431948 LF generalizationPL dep_bim_tob_ 621 dep audio-button-response 503 NA 14 1 75 abca jar
10875 1422473 LF generalizationPL bim_dep_tob_ 1414.08000001684 bim audio-button-response 473 NA 14 1 75 abca jar
10875 1420180 FL generalizationPL bim_tob_dep_ 589.100000000035 tob audio-button-response 500 NA 14 1 75 abca jar
10875 1459043 LF generalizationPL dep_tob_bim_ 1875 dep audio-button-response 473 NA 15 1 75 abca jar
10875 1457883 LF generalizationPL dep_bim_tob_ NA NA audio-button-response 463 NA 15 1 75 abca jar
10875 1459767 FL generalizationPL tob_dep_bim_ 249.410000000382 dep audio-button-response 490 NA 15 1 75 abca jar
10875 1420622 FL generalizationPL dep_tob_bim_ 814.735000021756 dep audio-button-response 470 NA 14 1 75 abca jar
10875 1459007 FL generalizationPL bim_tob_dep_ 1691.2599997595 dep audio-button-response 550 NA 15 1 75 abca jar
10875 1422470 LF generalizationPL tob_dep_bim_ 1029.41499999724 tob audio-button-response 463 NA 14 1 75 abca jar
10875 1422476 LF generalizationPL bim_tob_dep_ 1150.65500000492 dep audio-button-response 443 NA 14 1 75 abca jar
10875 1431965 FL generalizationPL dep_tob_bim_ 1235 tob audio-button-response 490 NA 14 1 75 abca jar
10925 1420185 LF generalizationPL dep_tob_bim_ 1469.53499992378 dep audio-button-response 498 NA 14 1 25 fgeg barrel
10925 1431965 FL generalizationPL bim_tob_dep_ 1317 bim audio-button-response 525 NA 14 1 25 fgeg barrel
10925 1459029 FL generalizationPL tob_dep_bim_ 955.705000000075 bim audio-button-response 465 NA 15 1 25 fgeg barrel
10925 1420204 LF generalizationPL bim_dep_tob_ 1443.00999999995 dep audio-button-response 448 NA 14 1 25 fgeg barrel
10925 1431992 FL generalizationPL tob_dep_bim_ 542 dep audio-button-response 465 NA 14 1 25 fgeg barrel
10925 1431942 LF generalizationPL tob_bim_dep_ 1396.35500009172 tob audio-button-response 418 NA 14 1 25 fgeg barrel
10925 1459109 LF generalizationPL dep_bim_tob_ 2487.70499997772 tob audio-button-response 498 NA 15 1 25 fgeg barrel
10925 1458992 FL generalizationPL dep_tob_bim_ 506.469999905676 tob audio-button-response 465 NA 15 1 25 fgeg barrel
10925 1459699 LF generalizationPL bim_dep_tob_ 2382 bim audio-button-response 468 NA 15 1 25 fgeg barrel
10925 1431970 LF generalizationPL tob_dep_bim_ 902.884999988601 tob audio-button-response 498 NA 14 1 25 fgeg barrel
10925 1420573 LF generalizationPL bim_tob_dep_ 1025 bim audio-button-response 558 NA 14 1 25 fgeg barrel
10925 1459043 LF generalizationPL dep_tob_bim_ 1005 tob audio-button-response 478 NA 15 1 25 fgeg barrel
10925 1459703 FL generalizationPL dep_bim_tob_ 798.659999971278 tob audio-button-response 505 NA 15 1 25 fgeg barrel
10925 1422466 FL generalizationPL dep_tob_bim_ 379.214999964461 dep audio-button-response 415 NA 14 1 25 fgeg barrel
10925 1431963 LF generalizationPL bim_dep_tob_ 2017.79500000703 dep audio-button-response 478 NA 14 1 25 fgeg barrel
10925 1432003 LF generalizationPL tob_dep_bim_ 2389 tob audio-button-response 498 NA 14 1 25 fgeg barrel
10925 1414937 FL generalizationPL tob_bim_dep_ 677.029999991646 dep audio-button-response 493 NA 14 1 25 fgeg barrel
10925 1459078 LF generalizationPL dep_bim_tob_ NA NA audio-button-response 468 NA 15 1 25 fgeg barrel
10925 1432009 FL generalizationPL dep_bim_tob_ 1082 tob audio-button-response 465 NA 14 1 25 fgeg barrel
10925 1420177 FL generalizationPL dep_bim_tob_ 692.940000008093 tob audio-button-response 445 NA 14 1 25 fgeg barrel
10925 1422675 FL generalizationPL tob_bim_dep_ 1051.19999998715 dep audio-button-response 445 NA 14 1 25 fgeg barrel
10975 1431965 FL generalizationPL bim_tob_dep_ 1503 dep audio-button-response 520 NA 14 1 75 acbc jar
10975 1431946 FL generalizationPL dep_bim_tob_ 777.53500000108 bim audio-button-response 520 NA 14 1 75 acbc jar
10975 1422476 LF generalizationPL dep_bim_tob_ 1833.09000000008 bim audio-button-response 473 NA 14 1 75 acbc jar
10975 1459706 FL generalizationPL tob_dep_bim_ 1107.17000000295 dep audio-button-response 470 NA 15 1 75 acbc jar
10975 1459009 FL generalizationPL tob_bim_dep_ 1118.33499999921 dep audio-button-response 440 NA 15 1 75 acbc jar
10975 1459003 FL generalizationPL bim_tob_dep_ 1176.02999997325 dep audio-button-response 500 NA 15 1 75 acbc jar
10975 1420580 FL generalizationPL bim_tob_dep_ 927.819999982603 dep audio-button-response 490 NA 14 1 75 acbc jar
10975 1432011 FL generalizationPL tob_dep_bim_ 606.330000329763 bim audio-button-response 440 NA 14 1 75 acbc jar
10975 1458998 LF generalizationPL dep_tob_bim_ 1497.9099999764 dep audio-button-response 443 NA 15 1 75 acbc jar
10975 1420199 FL generalizationPL tob_dep_bim_ 1071.97499999893 dep audio-button-response 470 NA 14 1 75 acbc jar
10975 1431949 FL generalizationPL bim_dep_tob_ 940.185000014026 dep audio-button-response 550 NA 14 1 75 acbc jar
10975 1459697 FL generalizationPL tob_bim_dep_ 484.274999998976 bim audio-button-response 550 NA 15 1 75 acbc jar
11025 1432030 LF generalizationPL dep_bim_tob_ NA NA audio-button-response 418 NA 14 1 25 fgge barrel
11025 1431968 LF generalizationPL dep_tob_bim_ 983.030000003055 dep audio-button-response 498 NA 14 1 25 fgge barrel
11025 1432301 LF generalizationPL bim_dep_tob_ 572.78000000224 tob audio-button-response 448 NA 14 1 25 fgge barrel
11025 1459048 FL generalizationPL tob_dep_bim_ 697 bim audio-button-response 465 NA 15 1 25 fgge barrel
11025 1422715 LF generalizationPL tob_dep_bim_ 979.129999992438 dep audio-button-response 508 NA 14 1 25 fgge barrel
11025 1459709 LF generalizationPL dep_bim_tob_ 1859.49499998242 tob audio-button-response 418 NA 15 1 25 fgge barrel
11025 1431972 FL generalizationPL tob_bim_dep_ 1083.21999997133 bim audio-button-response 505 NA 14 1 25 fgge barrel
11025 1422475 LF generalizationPL bim_dep_tob_ 1976.85500001535 tob audio-button-response 508 NA 14 1 25 fgge barrel
11025 1459043 LF generalizationPL tob_bim_dep_ NA NA audio-button-response 418 NA 15 1 25 fgge barrel
11025 1422472 FL generalizationPL dep_tob_bim_ 1869.37500000204 tob audio-button-response 465 NA 14 1 25 fgge barrel
11025 1422465 FL generalizationPL bim_dep_tob_ 786.584999994375 tob audio-button-response 525 NA 14 1 25 fgge barrel
11025 1422680 LF generalizationPL dep_bim_tob_ NA NA audio-button-response 528 NA 14 1 25 fgge barrel
11025 1459067 LF generalizationPL dep_tob_bim_ 1784.85499997623 tob audio-button-response 468 NA 15 1 25 fgge barrel
11025 1431944 FL generalizationPL dep_tob_bim_ 1157.72500000102 bim audio-button-response 465 NA 14 1 25 fgge barrel
11025 1431949 FL generalizationPL dep_tob_bim_ 578.21500004502 dep audio-button-response 525 NA 14 1 25 fgge barrel
11075 1459013 FL generalizationPL bim_dep_tob_ 1240 bim audio-button-response 440 NA 15 1 75 aaba jar
11075 1414937 FL generalizationPL bim_dep_tob_ 716.849999997066 dep audio-button-response 548 NA 14 1 75 aaba jar
11075 1431999 LF generalizationPL dep_tob_bim_ 522.599999996601 dep audio-button-response 443 NA 14 1 75 aaba jar
11075 1431989 LF generalizationPL bim_dep_tob_ 1916.88999999315 dep audio-button-response 493 NA 14 1 75 aaba jar
11075 1459708 FL generalizationPL dep_tob_bim_ 2098.8200000138 dep audio-button-response 500 NA 15 1 75 aaba jar
11075 1420622 FL generalizationPL tob_dep_bim_ 561.169999651611 dep audio-button-response 500 NA 14 1 75 aaba jar
11075 1431956 LF generalizationPL bim_tob_dep_ 612.625000008848 bim audio-button-response 523 NA 14 1 75 aaba jar
11075 1431978 FL generalizationPL dep_tob_bim_ 1507.89500000246 bim audio-button-response 460 NA 14 1 75 aaba jar
11075 1431979 FL generalizationPL tob_bim_dep_ 789 dep audio-button-response 470 NA 14 1 75 aaba jar
11075 1431966 LF generalizationPL dep_bim_tob_ 802.949999997509 tob audio-button-response 503 NA 14 1 75 aaba jar
11075 1422475 LF generalizationPL bim_dep_tob_ NA NA audio-button-response 473 NA 14 1 75 aaba jar
11125 1422473 LF generalizationPL tob_dep_bim_ NA NA audio-button-response 418 NA 14 1 25 gegf barrel
11125 1432323 LF generalizationPL dep_tob_bim_ 674 dep audio-button-response 478 NA 14 1 25 gegf barrel
11125 1422689 FL generalizationPL tob_dep_bim_ 704.029999993509 bim audio-button-response 505 NA 14 1 25 gegf barrel
11125 1431959 LF generalizationPL bim_dep_tob_ 1227.22000000067 tob audio-button-response 448 NA 14 1 25 gegf barrel
11125 1431978 FL generalizationPL dep_tob_bim_ 537.440000000061 dep audio-button-response 465 NA 14 1 25 gegf barrel
11125 1431948 LF generalizationPL tob_dep_bim_ 1711 bim audio-button-response 418 NA 14 1 25 gegf barrel
11125 1420169 LF generalizationPL tob_dep_bim_ 763.415000168607 dep audio-button-response 418 NA 14 1 25 gegf barrel
11125 1431960 LF generalizationPL dep_bim_tob_ 1581.87999995425 tob audio-button-response 528 NA 14 1 25 gegf barrel
11125 1432007 LF generalizationPL dep_tob_bim_ 221.454999998969 tob audio-button-response 448 NA 14 1 25 gegf barrel
11125 1420199 FL generalizationPL tob_bim_dep_ NA NA audio-button-response 415 NA 14 1 25 gegf barrel
11125 1420573 LF generalizationPL bim_tob_dep_ 399 dep audio-button-response 468 NA 14 1 25 gegf barrel
11125 1422463 FL generalizationPL dep_tob_bim_ 493.389999999665 tob audio-button-response 525 NA 14 1 25 gegf barrel
11125 1459708 FL generalizationPL tob_bim_dep_ 1838.21000001626 dep audio-button-response 445 NA 15 1 25 gegf barrel
11125 1431992 FL generalizationPL tob_dep_bim_ 768 dep audio-button-response 555 NA 14 1 25 gegf barrel
11125 1431966 LF generalizationPL dep_tob_bim_ 1032.24000000046 tob audio-button-response 418 NA 14 1 25 gegf barrel
11125 1432009 FL generalizationPL bim_tob_dep_ 438 tob audio-button-response 555 NA 14 1 25 gegf barrel
11125 1432052 FL generalizationPL dep_tob_bim_ 1301.78999999771 dep audio-button-response 445 NA 14 1 25 gegf barrel
11125 1431972 FL generalizationPL tob_dep_bim_ 1054.6949999989 tob audio-button-response 475 NA 14 1 25 gegf barrel
11125 1420622 FL generalizationPL tob_dep_bim_ 312.090000137687 tob audio-button-response 505 NA 14 1 25 gegf barrel
11125 1431979 FL generalizationPL tob_dep_bim_ 664 dep audio-button-response 445 NA 14 1 25 gegf barrel
11125 1431956 LF generalizationPL bim_dep_tob_ 1373.30499998643 tob audio-button-response 468 NA 14 1 25 gegf barrel
11125 1431958 FL generalizationPL bim_dep_tob_ 2239.12499999988 dep audio-button-response 495 NA 14 1 25 gegf barrel
11175 1459025 LF generalizationPL bim_dep_tob_ 2064.78999997489 dep audio-button-response 413 NA 15 1 75 cabb jar
11175 1420580 FL generalizationPL bim_tob_dep_ 537.925000011455 dep audio-button-response 550 NA 14 1 75 cabb jar
11175 1431952 LF generalizationPL bim_tob_dep_ 2193.70000000345 tob audio-button-response 413 NA 14 1 75 cabb jar
11175 1459052 FL generalizationPL bim_dep_tob_ 604.264999739826 dep audio-button-response 490 NA 15 1 75 cabb jar
11175 1458997 LF generalizationPL bim_dep_tob_ 683.414999977686 bim audio-button-response 493 NA 15 1 75 cabb jar
11175 1422470 LF generalizationPL bim_tob_dep_ 1103.92500000307 dep audio-button-response 493 NA 14 1 75 cabb jar
11175 1422467 LF generalizationPL tob_bim_dep_ 685.824999934994 dep audio-button-response 443 NA 14 1 75 cabb jar
11175 1420171 LF generalizationPL tob_dep_bim_ NA NA audio-button-response 473 NA 14 1 75 cabb jar
11175 1457883 LF generalizationPL dep_bim_tob_ 727.914999995846 dep audio-button-response 523 NA 15 1 75 cabb jar
11175 1459702 FL generalizationPL bim_tob_dep_ 851 bim audio-button-response 520 NA 15 1 75 cabb jar
11175 1459064 FL generalizationPL dep_bim_tob_ 799.000000115484 dep audio-button-response 550 NA 15 1 75 cabb jar
11175 1459009 FL generalizationPL tob_dep_bim_ 801.900000002177 dep audio-button-response 470 NA 15 1 75 cabb jar
11175 1431942 LF generalizationPL tob_bim_dep_ 910.725000081584 dep audio-button-response 443 NA 14 1 75 cabb jar
11175 1431998 LF generalizationPL tob_dep_bim_ 1558.24000000028 dep audio-button-response 463 NA 14 1 75 cabb jar
11175 1420552 LF generalizationPL dep_tob_bim_ 1990.78000005102 tob audio-button-response 443 NA 14 1 75 cabb jar
11175 1431972 FL generalizationPL bim_dep_tob_ 1954.10500001162 bim audio-button-response 410 NA 14 1 75 cabb jar
11225 1420165 FL generalizationPL bim_tob_dep_ 2189.8499999661 tob audio-button-response 555 NA 14 1 25 geeg barrel
11225 1459043 LF generalizationPL dep_bim_tob_ 697 tob audio-button-response 448 NA 15 1 25 geeg barrel
11225 1432075 FL generalizationPL dep_tob_bim_ 1327.46499986388 tob audio-button-response 475 NA 14 1 25 geeg barrel
11225 1459029 FL generalizationPL dep_bim_tob_ 1310.74500000244 tob audio-button-response 495 NA 15 1 25 geeg barrel
11225 1431998 LF generalizationPL dep_tob_bim_ 1769.42000000057 tob audio-button-response 528 NA 14 1 25 geeg barrel
11225 1459018 FL generalizationPL dep_bim_tob_ 990.604999940842 tob audio-button-response 555 NA 15 1 25 geeg barrel
11225 1422675 FL generalizationPL dep_tob_bim_ 2014.12499998696 dep audio-button-response 415 NA 14 1 25 geeg barrel
11225 1431952 LF generalizationPL dep_tob_bim_ 192.954999991343 tob audio-button-response 508 NA 14 1 25 geeg barrel
11225 1459067 LF generalizationPL dep_tob_bim_ 1045.13500002213 dep audio-button-response 498 NA 15 1 25 geeg barrel
11225 1414937 FL generalizationPL dep_bim_tob_ 2275.06499999436 dep audio-button-response 463 NA 14 1 25 geeg barrel
11225 1431949 FL generalizationPL bim_tob_dep_ 641.675000020768 dep audio-button-response 495 NA 14 1 25 geeg barrel
11225 1459013 FL generalizationPL bim_tob_dep_ 715 tob audio-button-response 415 NA 15 1 25 geeg barrel
11225 1422465 FL generalizationPL dep_bim_tob_ 549.195000086911 tob audio-button-response 495 NA 14 1 25 geeg barrel
11225 1420577 LF generalizationPL bim_dep_tob_ 1180.86500000209 bim audio-button-response 508 NA 14 1 25 geeg barrel
11225 1422472 FL generalizationPL dep_tob_bim_ 414.765000001295 dep audio-button-response 525 NA 14 1 25 geeg barrel
11225 1459020 LF generalizationPL dep_tob_bim_ 650.7849999998 bim audio-button-response 478 NA 15 1 25 geeg barrel
11225 1420171 LF generalizationPL tob_dep_bim_ NA NA audio-button-response 478 NA 14 1 25 geeg barrel
11225 1459767 FL generalizationPL tob_bim_dep_ 840.900000002934 dep audio-button-response 465 NA 15 1 25 geeg barrel
11225 1422681 LF generalizationPL bim_dep_tob_ 741.275000000314 tob audio-button-response 448 NA 14 1 25 geeg barrel
11225 1459064 FL generalizationPL dep_tob_bim_ 402.999999932945 dep audio-button-response 525 NA 15 1 25 geeg barrel
11225 1459001 FL generalizationPL bim_tob_dep_ 2453.19500000915 tob audio-button-response 465 NA 15 1 25 geeg barrel
11225 1431942 LF generalizationPL tob_bim_dep_ 944.735000142828 tob audio-button-response 478 NA 14 1 25 geeg barrel
11225 1457883 LF generalizationPL dep_tob_bim_ 459.855000022799 tob audio-button-response 558 NA 15 1 25 geeg barrel
11225 1432003 LF generalizationPL bim_dep_tob_ 1695 bim audio-button-response 528 NA 14 1 25 geeg barrel
11225 1422676 LF generalizationPL bim_tob_dep_ 966.495000000577 tob audio-button-response 558 NA 14 1 25 geeg barrel
11275 1422676 LF generalizationPL bim_tob_dep_ 875.400000000838 bim audio-button-response 553 NA 14 1 75 cbca jar
11275 1420185 LF generalizationPL dep_tob_bim_ 222.319999942556 dep audio-button-response 493 NA 14 1 75 cbca jar
11275 1420199 FL generalizationPL tob_bim_dep_ NA NA audio-button-response 410 NA 14 1 75 cbca jar
11275 1431956 LF generalizationPL bim_dep_tob_ 1785.74999998091 dep audio-button-response 463 NA 14 1 75 cbca jar
11275 1414933 LF generalizationPL dep_bim_tob_ 280 dep audio-button-response 491 NA 14 1 75 cbca jar
11275 1459001 FL generalizationPL bim_dep_tob_ 800.920000008773 bim audio-button-response 520 NA 15 1 75 cbca jar
11275 1459007 FL generalizationPL dep_tob_bim_ 2442.15000001714 dep audio-button-response 460 NA 15 1 75 cbca jar
11275 1431946 FL generalizationPL dep_tob_bim_ 1333.07000000787 bim audio-button-response 490 NA 14 1 75 cbca jar
11275 1432323 LF generalizationPL dep_tob_bim_ 722 dep audio-button-response 473 NA 14 1 75 cbca jar
11275 1431949 FL generalizationPL tob_bim_dep_ NA NA audio-button-response 460 NA 14 1 75 cbca jar
11275 1422715 LF generalizationPL tob_dep_bim_ 1299.75500004366 dep audio-button-response 413 NA 14 1 75 cbca jar
11325 1431949 FL generalizationPL tob_bim_dep_ 1878.90999997035 dep audio-button-response 465 NA 14 1 25 gegg barrel
11325 1431974 FL generalizationPL bim_tob_dep_ 1146.01000002585 tob audio-button-response 505 NA 14 1 25 gegg barrel
11325 1459003 FL generalizationPL tob_dep_bim_ 1218.63499993924 dep audio-button-response 415 NA 15 1 25 gegg barrel
11325 1432301 LF generalizationPL dep_tob_bim_ 265.469999998459 tob audio-button-response 508 NA 14 1 25 gegg barrel
11325 1459039 LF generalizationPL bim_tob_dep_ 604 dep audio-button-response 558 NA 15 1 25 gegg barrel
11325 1420169 LF generalizationPL tob_dep_bim_ 575.985000003129 dep audio-button-response 508 NA 14 1 25 gegg barrel
11325 1432075 FL generalizationPL dep_bim_tob_ NA NA audio-button-response 415 NA 14 1 25 gegg barrel
11325 1431946 FL generalizationPL dep_bim_tob_ 641.675000006217 tob audio-button-response 525 NA 14 1 25 gegg barrel
11325 1459009 FL generalizationPL bim_dep_tob_ 1415.79499999719 tob audio-button-response 415 NA 15 1 25 gegg barrel
11325 1431999 LF generalizationPL dep_tob_bim_ 1542.51999998814 tob audio-button-response 448 NA 14 1 25 gegg barrel
11325 1414937 FL generalizationPL tob_bim_dep_ 636.109999992186 dep audio-button-response 523 NA 14 1 25 gegg barrel
11325 1431979 FL generalizationPL tob_bim_dep_ 712 tob audio-button-response 475 NA 14 1 25 gegg barrel
11325 1459020 LF generalizationPL bim_tob_dep_ 460.215000000084 bim audio-button-response 448 NA 15 1 25 gegg barrel
11325 1457883 LF generalizationPL dep_bim_tob_ 723.129999998491 tob audio-button-response 468 NA 15 1 25 gegg barrel
11325 1458998 LF generalizationPL dep_bim_tob_ 1018.52499996312 tob audio-button-response 478 NA 15 1 25 gegg barrel
11325 1459025 LF generalizationPL bim_dep_tob_ 1131.02500000969 tob audio-button-response 418 NA 15 1 25 gegg barrel
11325 1422680 LF generalizationPL dep_bim_tob_ 982.740000006743 bim audio-button-response 468 NA 14 1 25 gegg barrel
11325 1420171 LF generalizationPL dep_tob_bim_ NA NA audio-button-response 448 NA 14 1 25 gegg barrel
11325 1431954 LF generalizationPL tob_dep_bim_ 277.08500000881 tob audio-button-response 418 NA 14 1 25 gegg barrel
11325 1458996 LF generalizationPL tob_bim_dep_ 473.654999999795 dep audio-button-response 478 NA 15 1 25 gegg barrel
11325 1431959 LF generalizationPL bim_tob_dep_ 1322.71499995841 tob audio-button-response 508 NA 14 1 25 gegg barrel
11325 1422715 LF generalizationPL tob_bim_dep_ 814.934999973048 dep audio-button-response 448 NA 14 1 25 gegg barrel
11325 1415040 FL generalizationPL dep_tob_bim_ 910 dep audio-button-response 553 NA 14 1 25 gegg barrel
11325 1431969 FL generalizationPL dep_bim_tob_ 557 tob audio-button-response 415 NA 14 1 25 gegg barrel
11325 1459697 FL generalizationPL tob_bim_dep_ 611.489999999292 dep audio-button-response 525 NA 15 1 25 gegg barrel
11375 1459109 LF generalizationPL dep_tob_bim_ 1756.96999998763 bim audio-button-response 553 NA 15 1 75 aaca jar
11375 1431979 FL generalizationPL bim_tob_dep_ NA NA audio-button-response 410 NA 14 1 75 aaca jar
11375 1459702 FL generalizationPL dep_tob_bim_ 1121 dep audio-button-response 490 NA 15 1 75 aaca jar
11375 1459703 FL generalizationPL dep_tob_bim_ 2160.35000002012 bim audio-button-response 410 NA 15 1 75 aaca jar
11375 1420177 FL generalizationPL tob_dep_bim_ 590.96000000136 dep audio-button-response 470 NA 14 1 75 aaca jar
11375 1459002 FL generalizationPL dep_bim_tob_ NA NA audio-button-response 410 NA 15 1 75 aaca jar
11375 1431960 LF generalizationPL bim_tob_dep_ 1840.99499997683 dep audio-button-response 493 NA 14 1 75 aaca jar
11375 1459699 LF generalizationPL bim_dep_tob_ 2125 dep audio-button-response 463 NA 15 1 75 aaca jar
11375 1432075 FL generalizationPL dep_tob_bim_ 271.374999778345 dep audio-button-response 470 NA 14 1 75 aaca jar
11375 1459020 LF generalizationPL bim_tob_dep_ 637.044999999925 tob audio-button-response 443 NA 15 1 75 aaca jar
11375 1420180 FL generalizationPL dep_bim_tob_ 1206.16499999998 dep audio-button-response 410 NA 14 1 75 aaca jar
11375 1459039 LF generalizationPL bim_tob_dep_ 422 dep audio-button-response 553 NA 15 1 75 aaca jar
11375 1431984 FL generalizationPL bim_tob_dep_ 502.425000071526 dep audio-button-response 500 NA 14 1 75 aaca jar
11375 1432052 FL generalizationPL dep_tob_bim_ NA NA audio-button-response 410 NA 14 1 75 aaca jar
11375 1459709 LF generalizationPL dep_bim_tob_ 1665.22499988787 dep audio-button-response 443 NA 15 1 75 aaca jar
11375 1422676 LF generalizationPL bim_dep_tob_ 1269.36000000022 bim audio-button-response 523 NA 14 1 75 aaca jar
11375 1431949 FL generalizationPL bim_tob_dep_ 904.619999986608 dep audio-button-response 490 NA 14 1 75 aaca jar
11375 1420185 LF generalizationPL bim_tob_dep_ 928.515000035986 dep audio-button-response 553 NA 14 1 75 aaca jar
11375 1422681 LF generalizationPL dep_tob_bim_ NA NA audio-button-response 413 NA 14 1 75 aaca jar
11425 1431957 FL generalizationPL tob_dep_bim_ 791.564999992261 dep audio-button-response 475 NA 14 1 25 gege barrel
11425 1422472 FL generalizationPL bim_tob_dep_ 1851.22499999846 dep audio-button-response 555 NA 14 1 25 gege barrel
11425 1459702 FL generalizationPL dep_tob_bim_ 1024 tob audio-button-response 495 NA 15 1 25 gege barrel
11425 1422465 FL generalizationPL bim_tob_dep_ 746.664999984205 tob audio-button-response 555 NA 14 1 25 gege barrel
11425 1420577 LF generalizationPL dep_bim_tob_ 1684.59999997867 bim audio-button-response 448 NA 14 1 25 gege barrel
11425 1422679 FL generalizationPL bim_dep_tob_ 485.340000130236 dep audio-button-response 525 NA 14 1 25 gege barrel
11425 1431953 FL generalizationPL tob_bim_dep_ 2321.22499996331 tob audio-button-response 415 NA 14 1 25 gege barrel
11425 1431966 LF generalizationPL dep_bim_tob_ 479.844999994384 tob audio-button-response 508 NA 14 1 25 gege barrel
11425 1420163 FL generalizationPL tob_bim_dep_ 1438.9599999995 dep audio-button-response 415 NA 14 1 25 gege barrel
11425 1459002 FL generalizationPL dep_tob_bim_ 1186.77999987267 bim audio-button-response 445 NA 15 1 25 gege barrel
11425 1414933 LF generalizationPL dep_tob_bim_ 788 dep audio-button-response 466 NA 14 1 25 gege barrel
11425 1458996 LF generalizationPL bim_tob_dep_ 578.325000000419 dep audio-button-response 508 NA 15 1 25 gege barrel
11425 1459701 LF generalizationPL tob_dep_bim_ 367.379999981495 bim audio-button-response 528 NA 15 1 25 gege barrel
11425 1420185 LF generalizationPL bim_dep_tob_ 1762.11000001058 bim audio-button-response 468 NA 14 1 25 gege barrel
11425 1459007 FL generalizationPL dep_tob_bim_ 581.229999661446 tob audio-button-response 465 NA 15 1 25 gege barrel
11425 1459697 FL generalizationPL tob_bim_dep_ 477.155000000494 dep audio-button-response 495 NA 15 1 25 gege barrel
11425 1459706 FL generalizationPL tob_dep_bim_ 1653.00500000012 bim audio-button-response 415 NA 15 1 25 gege barrel
11425 1431984 FL generalizationPL bim_tob_dep_ 649.484999943525 dep audio-button-response 415 NA 14 1 25 gege barrel
11475 1459002 FL generalizationPL dep_tob_bim_ 1013.90500017442 dep audio-button-response 440 NA 15 1 75 acaa jar
11475 1459702 FL generalizationPL dep_tob_bim_ 1049 tob audio-button-response 460 NA 15 1 75 acaa jar
11475 1431997 FL generalizationPL bim_tob_dep_ 939.230000134557 dep audio-button-response 500 NA 14 1 75 acaa jar
11475 1458998 LF generalizationPL bim_tob_dep_ 986.839999968652 tob audio-button-response 413 NA 15 1 75 acaa jar
11475 1432009 FL generalizationPL bim_tob_dep_ 629 dep audio-button-response 490 NA 14 1 75 acaa jar
11475 1459036 LF generalizationPL bim_tob_dep_ 571.005000034347 bim audio-button-response 503 NA 15 1 75 acaa jar
11475 1459078 LF generalizationPL bim_dep_tob_ NA NA audio-button-response 553 NA 15 1 75 acaa jar
11475 1432011 FL generalizationPL bim_dep_tob_ 784.260000102222 bim audio-button-response 500 NA 14 1 75 acaa jar
11475 1420185 LF generalizationPL bim_dep_tob_ NA NA audio-button-response 463 NA 14 1 75 acaa jar
11475 1431968 LF generalizationPL dep_tob_bim_ 1014.82500002021 dep audio-button-response 493 NA 14 1 75 acaa jar
11475 1459018 FL generalizationPL dep_bim_tob_ 336.744999978691 dep audio-button-response 550 NA 15 1 75 acaa jar
11475 1420180 FL generalizationPL bim_dep_tob_ 959.824999999953 dep audio-button-response 440 NA 14 1 75 acaa jar
11475 1431970 LF generalizationPL tob_dep_bim_ 1068.49500001408 bim audio-button-response 493 NA 14 1 75 acaa jar
11475 1431961 FL generalizationPL tob_bim_dep_ 510.350000011385 bim audio-button-response 520 NA 14 1 75 acaa jar
11475 1422677 FL generalizationPL tob_dep_bim_ 994.089999992866 bim audio-button-response 520 NA 14 1 75 acaa jar
11475 1432075 FL generalizationPL dep_bim_tob_ NA NA audio-button-response 410 NA 14 1 75 acaa jar
11525 1459015 LF generalizationPL dep_bim_tob_ 412.015000008978 dep audio-button-response 558 NA 15 1 25 eggf barrel
11525 1431958 FL generalizationPL tob_dep_bim_ 1930.57499999984 bim audio-button-response 555 NA 14 1 25 eggf barrel
11525 1422715 LF generalizationPL bim_tob_dep_ 777.270000020508 dep audio-button-response 478 NA 14 1 25 eggf barrel
11525 1431965 FL generalizationPL tob_bim_dep_ 1132 dep audio-button-response 465 NA 14 1 25 eggf barrel
11525 1431989 LF generalizationPL tob_bim_dep_ 733.929999987595 bim audio-button-response 468 NA 14 1 25 eggf barrel
11525 1420163 FL generalizationPL bim_dep_tob_ 1416.82499999297 tob audio-button-response 505 NA 14 1 25 eggf barrel
11525 1431954 LF generalizationPL dep_tob_bim_ 238.330000021961 tob audio-button-response 508 NA 14 1 25 eggf barrel
11525 1431959 LF generalizationPL tob_bim_dep_ 1094.45500001311 bim audio-button-response 418 NA 14 1 25 eggf barrel
11525 1459701 LF generalizationPL bim_tob_dep_ 1316.17999999435 tob audio-button-response 558 NA 15 1 25 eggf barrel
11525 1422470 LF generalizationPL tob_bim_dep_ 488.955000007991 tob audio-button-response 528 NA 14 1 25 eggf barrel
11525 1459699 LF generalizationPL bim_dep_tob_ 2070 bim audio-button-response 528 NA 15 1 25 eggf barrel
11525 1458998 LF generalizationPL bim_tob_dep_ 898.550000041723 tob audio-button-response 508 NA 15 1 25 eggf barrel
11525 1432030 LF generalizationPL bim_tob_dep_ 1236.3500000065 tob audio-button-response 448 NA 14 1 25 eggf barrel
11525 1431972 FL generalizationPL bim_dep_tob_ 1135.98999998067 dep audio-button-response 415 NA 14 1 25 eggf barrel
11525 1422676 LF generalizationPL bim_dep_tob_ 1232.61500000081 tob audio-button-response 468 NA 14 1 25 eggf barrel
11525 1459696 FL generalizationPL bim_dep_tob_ 378.859999997076 dep audio-button-response 514 NA 15 1 25 eggf barrel
11525 1459046 LF generalizationPL tob_bim_dep_ 909 tob audio-button-response 508 NA 15 1 25 eggf barrel
11525 1459706 FL generalizationPL bim_dep_tob_ 555.964999977732 dep audio-button-response 505 NA 15 1 25 eggf barrel
11525 1420204 LF generalizationPL tob_dep_bim_ 433.97000000003 tob audio-button-response 478 NA 14 1 25 eggf barrel
11525 1459700 LF generalizationPL tob_dep_bim_ 2276.10499999719 tob audio-button-response 448 NA 15 1 25 eggf barrel
11575 1459067 LF generalizationPL dep_bim_tob_ 945.420000003651 dep audio-button-response 553 NA 15 1 75 bcac jar
11575 1422676 LF generalizationPL bim_tob_dep_ 924.030000000144 bim audio-button-response 493 NA 14 1 75 bcac jar
11575 1459109 LF generalizationPL dep_bim_tob_ NA NA audio-button-response 523 NA 15 1 75 bcac jar
11575 1420580 FL generalizationPL bim_tob_dep_ 672.839999955613 dep audio-button-response 520 NA 14 1 75 bcac jar
11575 1422466 FL generalizationPL dep_bim_tob_ 436.219999974128 bim audio-button-response 470 NA 14 1 75 bcac jar
11575 1431968 LF generalizationPL tob_dep_bim_ NA NA audio-button-response 463 NA 14 1 75 bcac jar
11575 1459697 FL generalizationPL tob_bim_dep_ 1440.64000000071 bim audio-button-response 490 NA 15 1 75 bcac jar
11575 1459043 LF generalizationPL dep_bim_tob_ 1290 dep audio-button-response 503 NA 15 1 75 bcac jar
11575 1459015 LF generalizationPL dep_bim_tob_ NA NA audio-button-response 553 NA 15 1 75 bcac jar
11575 1459029 FL generalizationPL dep_bim_tob_ 788.634999997215 dep audio-button-response 490 NA 15 1 75 bcac jar
11575 1420204 LF generalizationPL bim_dep_tob_ 895.004999999946 dep audio-button-response 443 NA 14 1 75 bcac jar
11575 1432009 FL generalizationPL dep_tob_bim_ 164 dep audio-button-response 520 NA 14 1 75 bcac jar
11575 1459052 FL generalizationPL bim_dep_tob_ 651.625000406057 dep audio-button-response 550 NA 15 1 75 bcac jar
11575 1420163 FL generalizationPL tob_bim_dep_ NA NA audio-button-response 410 NA 14 1 75 bcac jar
11575 1431997 FL generalizationPL bim_dep_tob_ NA NA audio-button-response 410 NA 14 1 75 bcac jar
11575 1422678 LF generalizationPL tob_dep_bim_ NA NA audio-button-response 413 NA 14 1 75 bcac jar
11575 1422467 LF generalizationPL bim_dep_tob_ 1128.51499998942 dep audio-button-response 503 NA 14 1 75 bcac jar
11575 1431981 LF generalizationPL tob_dep_bim_ 1192.76499998523 bim audio-button-response 473 NA 14 1 75 bcac jar
11575 1431966 LF generalizationPL dep_tob_bim_ NA NA audio-button-response 413 NA 14 1 75 bcac jar
11575 1422463 FL generalizationPL dep_tob_bim_ 1606.97499999881 dep audio-button-response 490 NA 14 1 75 bcac jar
11625 1422463 FL generalizationPL dep_tob_bim_ 648.825000000186 tob audio-button-response 495 NA 14 1 25 eeeg barrel
11625 1422676 LF generalizationPL bim_tob_dep_ 2186.21999999962 bim audio-button-response 498 NA 14 1 25 eeeg barrel
11625 1432011 FL generalizationPL tob_dep_bim_ 498.535000253469 tob audio-button-response 445 NA 14 1 25 eeeg barrel
11625 1431981 LF generalizationPL dep_tob_bim_ 727.465000003576 bim audio-button-response 448 NA 14 1 25 eeeg barrel
11625 1457883 LF generalizationPL dep_bim_tob_ 788.445000012871 tob audio-button-response 498 NA 15 1 25 eeeg barrel
11625 1459064 FL generalizationPL bim_dep_tob_ 1361.00000003353 dep audio-button-response 465 NA 15 1 25 eeeg barrel
11625 1431942 LF generalizationPL tob_bim_dep_ 878.794999793172 tob audio-button-response 448 NA 14 1 25 eeeg barrel
11625 1422681 LF generalizationPL dep_tob_bim_ 901.710000001942 tob audio-button-response 418 NA 14 1 25 eeeg barrel
11625 1431948 LF generalizationPL tob_bim_dep_ 694 bim audio-button-response 448 NA 14 1 25 eeeg barrel
11625 1420577 LF generalizationPL bim_tob_dep_ 1865.29500002507 tob audio-button-response 418 NA 14 1 25 eeeg barrel
11625 1414945 FL generalizationPL tob_bim_dep_ 732.255000155419 tob audio-button-response 553 NA 14 1 25 eeeg barrel
11625 1459078 LF generalizationPL bim_dep_tob_ 1058.63 dep audio-button-response 558 NA 15 1 25 eeeg barrel
11625 1422465 FL generalizationPL tob_dep_bim_ 834.385000052862 tob audio-button-response 465 NA 14 1 25 eeeg barrel
11625 1459109 LF generalizationPL dep_tob_bim_ 1456.05000003707 tob audio-button-response 558 NA 15 1 25 eeeg barrel
11675 1420577 LF generalizationPL dep_bim_tob_ 887.664999987464 dep audio-button-response 443 NA 14 1 75 abac jar
11675 1431958 FL generalizationPL bim_dep_tob_ 1345.95499999996 dep audio-button-response 490 NA 14 1 75 abac jar
11675 1422716 FL generalizationPL dep_tob_bim_ 488.27000008896 dep audio-button-response 500 NA 14 1 75 abac jar
11675 1431957 FL generalizationPL dep_tob_bim_ 2126.41999998596 tob audio-button-response 410 NA 14 1 75 abac jar
11675 1420177 FL generalizationPL tob_bim_dep_ 1258.50500000524 dep audio-button-response 500 NA 14 1 75 abac jar
11675 1459696 FL generalizationPL tob_bim_dep_ 955.279999994673 bim audio-button-response 449 NA 15 1 75 abac jar
11675 1431989 LF generalizationPL dep_tob_bim_ 904.370000003837 dep audio-button-response 523 NA 14 1 75 abac jar
11675 1422675 FL generalizationPL dep_bim_tob_ 741.644999972777 dep audio-button-response 500 NA 14 1 75 abac jar
11675 1458992 FL generalizationPL dep_tob_bim_ 505.149999866262 dep audio-button-response 550 NA 15 1 75 abac jar
11675 1459020 LF generalizationPL tob_bim_dep_ 1186.96000000002 tob audio-button-response 413 NA 15 1 75 abac jar
11675 1422689 FL generalizationPL bim_dep_tob_ NA NA audio-button-response 410 NA 14 1 75 abac jar
11675 1422477 FL generalizationPL dep_tob_bim_ 1220.94500000821 tob audio-button-response 490 NA 14 1 75 abac jar
11675 1431952 LF generalizationPL dep_bim_tob_ 717.579999996815 tob audio-button-response 473 NA 14 1 75 abac jar
11725 1459024 FL generalizationPL dep_tob_bim_ 769.000000000233 bim audio-button-response 555 NA 15 1 25 fegf barrel
11725 1431957 FL generalizationPL dep_tob_bim_ 860.664999985602 tob audio-button-response 415 NA 14 1 25 fegf barrel
11725 1459064 FL generalizationPL tob_bim_dep_ 549.000000115484 tob audio-button-response 495 NA 15 1 25 fegf barrel
11725 1459067 LF generalizationPL dep_bim_tob_ 983.079999918118 dep audio-button-response 528 NA 15 1 25 fegf barrel
11725 1459007 FL generalizationPL dep_tob_bim_ 524.865000043064 tob audio-button-response 495 NA 15 1 25 fegf barrel
11725 1431972 FL generalizationPL dep_bim_tob_ 1159.89999996964 bim audio-button-response 445 NA 14 1 25 fegf barrel
11725 1420204 LF generalizationPL tob_dep_bim_ 533.400000000023 tob audio-button-response 418 NA 14 1 25 fegf barrel
11725 1459047 FL generalizationPL bim_tob_dep_ 693.919999990612 tob audio-button-response 525 NA 15 1 25 fegf barrel
11725 1422716 FL generalizationPL dep_tob_bim_ 1587.42999983951 dep audio-button-response 505 NA 14 1 25 fegf barrel
11725 1422676 LF generalizationPL bim_dep_tob_ 1094.6100000001 tob audio-button-response 528 NA 14 1 25 fegf barrel
11725 1459001 FL generalizationPL tob_dep_bim_ 1875.69000000076 bim audio-button-response 555 NA 15 1 25 fegf barrel
11725 1414957 FL generalizationPL dep_bim_tob_ 749.169999995502 tob audio-button-response 463 NA 14 1 25 fegf barrel
11725 1459702 FL generalizationPL bim_tob_dep_ 694 dep audio-button-response 555 NA 15 1 25 fegf barrel
11725 1431963 LF generalizationPL tob_dep_bim_ 828.874999991967 dep audio-button-response 508 NA 14 1 25 fegf barrel
11725 1459018 FL generalizationPL dep_bim_tob_ 932.480000075884 tob audio-button-response 525 NA 15 1 25 fegf barrel
11725 1414933 LF generalizationPL bim_dep_tob_ 842 dep audio-button-response 556 NA 14 1 25 fegf barrel
11725 1414932 LF generalizationPL dep_tob_bim_ 1427.47499997495 dep audio-button-response 496 NA 14 1 25 fegf barrel
11725 1459767 FL generalizationPL tob_dep_bim_ 121.355000002775 dep audio-button-response 495 NA 15 1 25 fegf barrel
11725 1422466 FL generalizationPL tob_dep_bim_ 679.405000002589 dep audio-button-response 505 NA 14 1 25 fegf barrel
11725 1432003 LF generalizationPL tob_dep_bim_ 1418 bim audio-button-response 558 NA 14 1 25 fegf barrel
11775 1431952 LF generalizationPL dep_tob_bim_ 408.634999999776 bim audio-button-response 503 NA 14 1 75 aaab jar
11775 1431963 LF generalizationPL bim_dep_tob_ 1797.01000000932 bim audio-button-response 473 NA 14 1 75 aaab jar
11775 1459109 LF generalizationPL dep_bim_tob_ 2247.52500001341 bim audio-button-response 493 NA 15 1 75 aaab jar
11775 1458996 LF generalizationPL bim_dep_tob_ NA NA audio-button-response 413 NA 15 1 75 aaab jar
11775 1431968 LF generalizationPL dep_tob_bim_ 909.255000005942 dep audio-button-response 553 NA 14 1 75 aaab jar
11775 1431966 LF generalizationPL bim_dep_tob_ 776.215000005323 tob audio-button-response 473 NA 14 1 75 aaab jar
11775 1431974 FL generalizationPL bim_tob_dep_ 413.925000000745 dep audio-button-response 500 NA 14 1 75 aaab jar
11775 1414945 FL generalizationPL tob_dep_bim_ 1271.35499985889 dep audio-button-response 488 NA 14 1 75 aaab jar
11775 1414932 LF generalizationPL dep_tob_bim_ 625.585000001593 bim audio-button-response 491 NA 14 1 75 aaab jar
11775 1422715 LF generalizationPL tob_bim_dep_ 947.385000006761 dep audio-button-response 443 NA 14 1 75 aaab jar
11775 1459702 FL generalizationPL bim_tob_dep_ 430 bim audio-button-response 550 NA 15 1 75 aaab jar
11775 1422472 FL generalizationPL tob_bim_dep_ 1157.43500000099 tob audio-button-response 490 NA 14 1 75 aaab jar
11775 1459706 FL generalizationPL bim_dep_tob_ 1317.60000000941 dep audio-button-response 440 NA 15 1 75 aaab jar
11825 1431989 LF generalizationPL bim_dep_tob_ 982.73499996867 bim audio-button-response 498 NA 14 1 25 feeg barrel
11825 1422715 LF generalizationPL tob_dep_bim_ 928.795000014361 bim audio-button-response 418 NA 14 1 25 feeg barrel
11825 1431952 LF generalizationPL bim_tob_dep_ 1996.55999999959 dep audio-button-response 418 NA 14 1 25 feeg barrel
11825 1459703 FL generalizationPL dep_bim_tob_ 464.409999898635 bim audio-button-response 475 NA 15 1 25 feeg barrel
11825 1459708 FL generalizationPL bim_tob_dep_ 1412.50000000582 dep audio-button-response 415 NA 15 1 25 feeg barrel
11825 1459009 FL generalizationPL tob_bim_dep_ 1722.23999999912 tob audio-button-response 445 NA 15 1 25 feeg barrel
11825 1459039 LF generalizationPL bim_tob_dep_ NA NA audio-button-response 498 NA 15 1 25 feeg barrel
11825 1420199 FL generalizationPL dep_bim_tob_ 1404.62000001571 tob audio-button-response 445 NA 14 1 25 feeg barrel
11825 1459015 LF generalizationPL tob_bim_dep_ 937.934999994468 dep audio-button-response 528 NA 15 1 25 feeg barrel
11825 1431984 FL generalizationPL tob_dep_bim_ 1204.51000006869 dep audio-button-response 445 NA 14 1 25 feeg barrel
11825 1422473 LF generalizationPL tob_dep_bim_ 1175.34000001615 dep audio-button-response 448 NA 14 1 25 feeg barrel
11825 1459018 FL generalizationPL bim_tob_dep_ 659.450000035577 tob audio-button-response 465 NA 15 1 25 feeg barrel
11825 1459036 LF generalizationPL dep_bim_tob_ 1070.00499998685 bim audio-button-response 418 NA 15 1 25 feeg barrel
11825 1414945 FL generalizationPL bim_tob_dep_ NA NA audio-button-response 463 NA 14 1 25 feeg barrel
11825 1422470 LF generalizationPL dep_tob_bim_ 476.384999987204 tob audio-button-response 558 NA 14 1 25 feeg barrel
11825 1431981 LF generalizationPL bim_dep_tob_ 1062.96500004828 bim audio-button-response 418 NA 14 1 25 feeg barrel
11825 1422681 LF generalizationPL bim_tob_dep_ 167.175000002258 tob audio-button-response 508 NA 14 1 25 feeg barrel
11825 1420580 FL generalizationPL bim_tob_dep_ 717.170000018086 dep audio-button-response 495 NA 14 1 25 feeg barrel
11825 1432030 LF generalizationPL bim_tob_dep_ 1065.42499999341 tob audio-button-response 508 NA 14 1 25 feeg barrel
11825 1458997 LF generalizationPL bim_dep_tob_ 620.430000009947 tob audio-button-response 528 NA 15 1 25 feeg barrel
11875 1420185 LF generalizationPL dep_bim_tob_ 752.100000157952 dep audio-button-response 523 NA 14 1 75 baab jar
11875 1459025 LF generalizationPL dep_tob_bim_ 600.205000024289 tob audio-button-response 443 NA 15 1 75 baab jar
11875 1459007 FL generalizationPL dep_tob_bim_ 961.670000106096 dep audio-button-response 490 NA 15 1 75 baab jar
11875 1422677 FL generalizationPL bim_tob_dep_ 486.820000020089 dep audio-button-response 490 NA 14 1 75 baab jar
11875 1432009 FL generalizationPL bim_tob_dep_ 810 dep audio-button-response 550 NA 14 1 75 baab jar
11875 1420573 LF generalizationPL dep_bim_tob_ 1347 bim audio-button-response 523 NA 14 1 75 baab jar
11875 1459013 FL generalizationPL bim_dep_tob_ 1799 dep audio-button-response 470 NA 15 1 75 baab jar
11875 1420169 LF generalizationPL dep_bim_tob_ 788.179999915883 dep audio-button-response 443 NA 14 1 75 baab jar
11875 1420171 LF generalizationPL bim_tob_dep_ NA NA audio-button-response 503 NA 14 1 75 baab jar
11875 1414957 FL generalizationPL bim_dep_tob_ 534.905000007711 dep audio-button-response 488 NA 14 1 75 baab jar
11875 1431963 LF generalizationPL dep_tob_bim_ 1040.16000000411 bim audio-button-response 443 NA 14 1 75 baab jar
11875 1432007 LF generalizationPL dep_bim_tob_ 2350.14999999839 tob audio-button-response 413 NA 14 1 75 baab jar
11925 1459036 LF generalizationPL tob_dep_bim_ 898.83999992162 bim audio-button-response 478 NA 15 1 25 fegg barrel
11925 1459109 LF generalizationPL bim_dep_tob_ 1290.35500006285 dep audio-button-response 468 NA 15 1 25 fegg barrel
11925 1422680 LF generalizationPL tob_bim_dep_ 538.605000008829 dep audio-button-response 558 NA 14 1 25 fegg barrel
11925 1459078 LF generalizationPL bim_dep_tob_ 1524.27000000014 dep audio-button-response 498 NA 15 1 25 fegg barrel
11925 1420171 LF generalizationPL bim_tob_dep_ NA NA audio-button-response 508 NA 14 1 25 fegg barrel
11925 1422466 FL generalizationPL dep_tob_bim_ 388.350000022911 dep audio-button-response 445 NA 14 1 25 fegg barrel
11925 1431997 FL generalizationPL tob_dep_bim_ 1238.89000015333 dep audio-button-response 475 NA 14 1 25 fegg barrel
11925 1422677 FL generalizationPL tob_bim_dep_ 1438.52000002516 bim audio-button-response 465 NA 14 1 25 fegg barrel
11925 1458992 FL generalizationPL tob_dep_bim_ 914.130000164732 tob audio-button-response 495 NA 15 1 25 fegg barrel
11925 1422476 LF generalizationPL tob_bim_dep_ 940.025000003516 bim audio-button-response 508 NA 14 1 25 fegg barrel
11925 1420580 FL generalizationPL bim_tob_dep_ 558.744999987539 dep audio-button-response 555 NA 14 1 25 fegg barrel
11925 1420169 LF generalizationPL tob_dep_bim_ 1892.26999995299 tob audio-button-response 478 NA 14 1 25 fegg barrel
11925 1459702 FL generalizationPL dep_tob_bim_ 837 dep audio-button-response 465 NA 15 1 25 fegg barrel
11925 1459699 LF generalizationPL dep_bim_tob_ 1628 dep audio-button-response 558 NA 15 1 25 fegg barrel
11925 1458998 LF generalizationPL dep_tob_bim_ 733.695000002626 tob audio-button-response 448 NA 15 1 25 fegg barrel
11925 1459696 FL generalizationPL tob_bim_dep_ 488.645000004908 tob audio-button-response 454 NA 15 1 25 fegg barrel
11925 1422675 FL generalizationPL dep_tob_bim_ 1687.13000000571 dep audio-button-response 475 NA 14 1 25 fegg barrel
11925 1431989 LF generalizationPL dep_tob_bim_ 1884.19000001159 bim audio-button-response 528 NA 14 1 25 fegg barrel
11925 1420622 FL generalizationPL dep_tob_bim_ 1122.65000026673 tob audio-button-response 445 NA 14 1 25 fegg barrel
11975 1431974 FL generalizationPL tob_dep_bim_ 1303.38000005577 dep audio-button-response 410 NA 14 1 75 caab jar
11975 1459046 LF generalizationPL tob_bim_dep_ 1271 dep audio-button-response 443 NA 15 1 75 caab jar
11975 1431965 FL generalizationPL tob_bim_dep_ 2498 bim audio-button-response 460 NA 14 1 75 caab jar
11975 1458998 LF generalizationPL bim_tob_dep_ 1623.81499999901 bim audio-button-response 503 NA 15 1 75 caab jar
11975 1422716 FL generalizationPL bim_tob_dep_ 599.775000009686 dep audio-button-response 470 NA 14 1 75 caab jar
11975 1414933 LF generalizationPL dep_tob_bim_ 757 dep audio-button-response 521 NA 14 1 75 caab jar
11975 1459708 FL generalizationPL tob_bim_dep_ 2413.74000001815 dep audio-button-response 470 NA 15 1 75 caab jar
11975 1420180 FL generalizationPL bim_dep_tob_ 958 dep audio-button-response 470 NA 14 1 75 caab jar
11975 1420169 LF generalizationPL tob_dep_bim_ 636.995000066236 dep audio-button-response 503 NA 14 1 75 caab jar
12025 1459018 FL generalizationPL tob_bim_dep_ 584.335000021383 tob audio-button-response 495 NA 15 1 25 fege barrel
12025 1459057 FL generalizationPL bim_dep_tob_ 1659.74500000081 tob audio-button-response 465 NA 15 1 25 fege barrel
12025 1432075 FL generalizationPL dep_bim_tob_ 1387.57499982603 dep audio-button-response 445 NA 14 1 25 fege barrel
12025 1432007 LF generalizationPL dep_bim_tob_ 1717.18999999936 dep audio-button-response 418 NA 14 1 25 fege barrel
12025 1432323 LF generalizationPL bim_tob_dep_ 406 tob audio-button-response 418 NA 14 1 25 fege barrel
12025 1459003 FL generalizationPL dep_tob_bim_ 1333.01000006031 dep audio-button-response 445 NA 15 1 25 fege barrel
12025 1431946 FL generalizationPL dep_bim_tob_ 625.759999995353 tob audio-button-response 555 NA 14 1 25 fege barrel
12025 1459024 FL generalizationPL bim_tob_dep_ 520.625000004657 tob audio-button-response 495 NA 15 1 25 fege barrel
12025 1431944 FL generalizationPL bim_tob_dep_ 1513.9049999998 bim audio-button-response 525 NA 14 1 25 fege barrel
12025 1431958 FL generalizationPL bim_dep_tob_ 1003.59499999986 tob audio-button-response 525 NA 14 1 25 fege barrel
12025 1414945 FL generalizationPL tob_dep_bim_ NA NA audio-button-response 493 NA 14 1 25 fege barrel
12025 1459013 FL generalizationPL bim_dep_tob_ 569 dep audio-button-response 445 NA 15 1 25 fege barrel
12025 1431965 FL generalizationPL dep_tob_bim_ 1335 tob audio-button-response 495 NA 14 1 25 fege barrel
12075 1459703 FL generalizationPL dep_bim_tob_ 419.88499998115 dep audio-button-response 470 NA 15 1 75 ccaa jar
12075 1431944 FL generalizationPL dep_tob_bim_ 2203.51500000106 tob audio-button-response 460 NA 14 1 75 ccaa jar
12075 1459002 FL generalizationPL dep_bim_tob_ 716.200000140816 bim audio-button-response 470 NA 15 1 75 ccaa jar
12075 1422467 LF generalizationPL bim_tob_dep_ 1613.7400000589 dep audio-button-response 473 NA 14 1 75 ccaa jar
12075 1420163 FL generalizationPL bim_dep_tob_ 1573.02499999059 tob audio-button-response 500 NA 14 1 75 ccaa jar
12075 1459003 FL generalizationPL bim_dep_tob_ 1863.1400000304 dep audio-button-response 470 NA 15 1 75 ccaa jar
12075 1420165 FL generalizationPL tob_dep_bim_ NA NA audio-button-response 520 NA 14 1 75 ccaa jar
12075 1431952 LF generalizationPL bim_dep_tob_ 1771.87500000582 dep audio-button-response 443 NA 14 1 75 ccaa jar
12075 1432007 LF generalizationPL bim_dep_tob_ 471.569999997853 bim audio-button-response 473 NA 14 1 75 ccaa jar
12075 1459701 LF generalizationPL tob_dep_bim_ 506.27500002156 dep audio-button-response 523 NA 15 1 75 ccaa jar
12075 1431969 FL generalizationPL bim_tob_dep_ 802 bim audio-button-response 500 NA 14 1 75 ccaa jar
12075 1431981 LF generalizationPL dep_bim_tob_ 658.534999995027 tob audio-button-response 503 NA 14 1 75 ccaa jar
12075 1415040 FL generalizationPL dep_bim_tob_ NA NA audio-button-response 458 NA 14 1 75 ccaa jar
12075 1432030 LF generalizationPL dep_tob_bim_ 755.260000005364 dep audio-button-response 473 NA 14 1 75 ccaa jar
12125 1431997 FL generalizationPL bim_dep_tob_ 1045.22500000894 tob audio-button-response 445 NA 14 1 25 egeg barrel
12125 1431961 FL generalizationPL bim_tob_dep_ 1026.2800000055 tob audio-button-response 555 NA 14 1 25 egeg barrel
12125 1459706 FL generalizationPL bim_dep_tob_ 1529.36499999487 bim audio-button-response 445 NA 15 1 25 egeg barrel
12125 1458998 LF generalizationPL bim_tob_dep_ 804.525000043213 tob audio-button-response 418 NA 15 1 25 egeg barrel
12125 1432007 LF generalizationPL bim_dep_tob_ 435.659999999218 dep audio-button-response 478 NA 14 1 25 egeg barrel
12125 1422716 FL generalizationPL bim_dep_tob_ 1718.98999996483 bim audio-button-response 445 NA 14 1 25 egeg barrel
12125 1432030 LF generalizationPL dep_tob_bim_ 674.540000007255 tob audio-button-response 478 NA 14 1 25 egeg barrel
12125 1420177 FL generalizationPL dep_bim_tob_ 1245.07999999332 tob audio-button-response 415 NA 14 1 25 egeg barrel
12125 1420552 LF generalizationPL bim_dep_tob_ 1161.08500002883 dep audio-button-response 478 NA 14 1 25 egeg barrel
12125 1459700 LF generalizationPL bim_tob_dep_ 1146.28499999526 tob audio-button-response 508 NA 15 1 25 egeg barrel
12125 1431999 LF generalizationPL bim_dep_tob_ 503.984999988461 tob audio-button-response 508 NA 14 1 25 egeg barrel
12125 1422689 FL generalizationPL dep_bim_tob_ 1574.90500001586 tob audio-button-response 445 NA 14 1 25 egeg barrel
12125 1422678 LF generalizationPL tob_dep_bim_ 509.004999999888 tob audio-button-response 508 NA 14 1 25 egeg barrel
12125 1459036 LF generalizationPL bim_tob_dep_ 1504.90000005811 tob audio-button-response 508 NA 15 1 25 egeg barrel
12125 1415040 FL generalizationPL tob_dep_bim_ 880 bim audio-button-response 523 NA 14 1 25 egeg barrel
12125 1459052 FL generalizationPL bim_dep_tob_ 1020.02000017092 dep audio-button-response 495 NA 15 1 25 egeg barrel
12125 1431998 LF generalizationPL dep_bim_tob_ 1346.94000000128 bim audio-button-response 498 NA 14 1 25 egeg barrel
12125 1422477 FL generalizationPL dep_bim_tob_ 765.605000022333 bim audio-button-response 555 NA 14 1 25 egeg barrel
12125 1459009 FL generalizationPL dep_bim_tob_ 1379.9199999994 tob audio-button-response 505 NA 15 1 25 egeg barrel
12125 1431968 LF generalizationPL tob_dep_bim_ 1195.75999997323 dep audio-button-response 468 NA 14 1 25 egeg barrel
12175 1459047 FL generalizationPL bim_dep_tob_ 477.644999977201 dep audio-button-response 490 NA 15 1 75 bcaa jar
12175 1459001 FL generalizationPL bim_tob_dep_ 850.395000001299 dep audio-button-response 490 NA 15 1 75 bcaa jar
12175 1459109 LF generalizationPL bim_dep_tob_ NA NA audio-button-response 463 NA 15 1 75 bcaa jar
12175 1422465 FL generalizationPL tob_dep_bim_ 1948.83999996819 tob audio-button-response 460 NA 14 1 75 bcaa jar
12175 1414933 LF generalizationPL bim_dep_tob_ 563 dep audio-button-response 551 NA 14 1 75 bcaa jar
12175 1414957 FL generalizationPL dep_bim_tob_ NA NA audio-button-response 458 NA 14 1 75 bcaa jar
12175 1459078 LF generalizationPL bim_dep_tob_ 2124.51999999979 bim audio-button-response 493 NA 15 1 75 bcaa jar
12175 1422681 LF generalizationPL bim_tob_dep_ 539.239999998244 dep audio-button-response 503 NA 14 1 75 bcaa jar
12175 1432003 LF generalizationPL bim_tob_dep_ NA NA audio-button-response 463 NA 14 1 75 bcaa jar
12175 1459767 FL generalizationPL tob_bim_dep_ 2292.75000000047 dep audio-button-response 460 NA 15 1 75 bcaa jar
12175 1420552 LF generalizationPL bim_dep_tob_ 1919.88000000129 bim audio-button-response 473 NA 14 1 75 bcaa jar
12175 1431942 LF generalizationPL tob_bim_dep_ NA NA audio-button-response 413 NA 14 1 75 bcaa jar
12175 1459057 FL generalizationPL dep_bim_tob_ 1202.22500000091 tob audio-button-response 550 NA 15 1 75 bcaa jar
12175 1459067 LF generalizationPL dep_tob_bim_ 1652.40999986418 dep audio-button-response 463 NA 15 1 75 bcaa jar
12225 1431984 FL generalizationPL bim_tob_dep_ 487.804999575019 dep audio-button-response 505 NA 14 1 25 egfg barrel
12225 1431942 LF generalizationPL dep_tob_bim_ 1038.38500007987 bim audio-button-response 508 NA 14 1 25 egfg barrel
12225 1432075 FL generalizationPL dep_tob_bim_ 1422.28999990039 bim audio-button-response 505 NA 14 1 25 egfg barrel
12225 1431978 FL generalizationPL tob_bim_dep_ 770.325000004959 dep audio-button-response 495 NA 14 1 25 egfg barrel
12225 1458992 FL generalizationPL tob_bim_dep_ 973.865000065416 tob audio-button-response 525 NA 15 1 25 egfg barrel
12225 1431998 LF generalizationPL tob_dep_bim_ 2025.74499999906 tob audio-button-response 468 NA 14 1 25 egfg barrel
12225 1432301 LF generalizationPL bim_tob_dep_ 906.25 tob audio-button-response 418 NA 14 1 25 egfg barrel
12225 1432009 FL generalizationPL dep_tob_bim_ 743 tob audio-button-response 525 NA 14 1 25 egfg barrel
12225 1459697 FL generalizationPL tob_bim_dep_ 1149.86000000138 bim audio-button-response 555 NA 15 1 25 egfg barrel
12225 1414937 FL generalizationPL bim_dep_tob_ 519.329999980982 dep audio-button-response 553 NA 14 1 25 egfg barrel
12225 1459025 LF generalizationPL dep_tob_bim_ 382.689999882132 dep audio-button-response 448 NA 15 1 25 egfg barrel
12225 1459701 LF generalizationPL bim_tob_dep_ 2091.53499998502 bim audio-button-response 468 NA 15 1 25 egfg barrel
12225 1414933 LF generalizationPL dep_bim_tob_ 130 dep audio-button-response 496 NA 14 1 25 egfg barrel
12225 1458997 LF generalizationPL bim_dep_tob_ 948.375000036322 bim audio-button-response 498 NA 15 1 25 egfg barrel
12225 1414945 FL generalizationPL tob_dep_bim_ 746.185000054538 tob audio-button-response 523 NA 14 1 25 egfg barrel
12275 1431970 LF generalizationPL bim_tob_dep_ 135.254999971949 dep audio-button-response 553 NA 14 1 75 bcca jar
12275 1432323 LF generalizationPL dep_bim_tob_ 444 dep audio-button-response 503 NA 14 1 75 bcca jar
12275 1459709 LF generalizationPL dep_bim_tob_ 2138.83000006899 dep audio-button-response 413 NA 15 1 75 bcca jar
12275 1414937 FL generalizationPL tob_bim_dep_ 603.555000008782 dep audio-button-response 518 NA 14 1 75 bcca jar
12275 1420177 FL generalizationPL dep_bim_tob_ NA NA audio-button-response 410 NA 14 1 75 bcca jar
12275 1431969 FL generalizationPL dep_tob_bim_ 1086 tob audio-button-response 470 NA 14 1 75 bcca jar
12275 1459039 LF generalizationPL bim_tob_dep_ 854 dep audio-button-response 493 NA 15 1 75 bcca jar
12275 1459018 FL generalizationPL tob_bim_dep_ 2388.90999997966 dep audio-button-response 490 NA 15 1 75 bcca jar
12275 1459057 FL generalizationPL bim_dep_tob_ NA NA audio-button-response 460 NA 15 1 75 bcca jar
12275 1459046 LF generalizationPL dep_bim_tob_ NA NA audio-button-response 473 NA 15 1 75 bcca jar
12275 1431948 LF generalizationPL tob_dep_bim_ NA NA audio-button-response 413 NA 14 1 75 bcca jar
12275 1431997 FL generalizationPL tob_dep_bim_ 1520.33500000834 dep audio-button-response 470 NA 14 1 75 bcca jar
12275 1420622 FL generalizationPL dep_tob_bim_ NA NA audio-button-response 410 NA 14 1 75 bcca jar
12275 1431998 LF generalizationPL dep_bim_tob_ 425.82999999827 dep audio-button-response 493 NA 14 1 75 bcca jar
12325 1459013 FL generalizationPL bim_dep_tob_ 1631 bim audio-button-response 475 NA 15 1 25 gfff barrel
12325 1431956 LF generalizationPL bim_tob_dep_ 1135.18499999191 dep audio-button-response 528 NA 14 1 25 gfff barrel
12325 1420165 FL generalizationPL tob_dep_bim_ 1266.20000001276 tob audio-button-response 525 NA 14 1 25 gfff barrel
12325 1459046 LF generalizationPL dep_bim_tob_ 1420 dep audio-button-response 478 NA 15 1 25 gfff barrel
12325 1431952 LF generalizationPL dep_bim_tob_ 892.489999998361 bim audio-button-response 478 NA 14 1 25 gfff barrel
12325 1431958 FL generalizationPL bim_tob_dep_ 2232.6399999999 tob audio-button-response 465 NA 14 1 25 gfff barrel
12325 1422680 LF generalizationPL bim_tob_dep_ 388.420000032056 bim audio-button-response 498 NA 14 1 25 gfff barrel
12325 1431953 FL generalizationPL tob_bim_dep_ 1491.00499995984 bim audio-button-response 445 NA 14 1 25 gfff barrel
12325 1414933 LF generalizationPL dep_tob_bim_ 269 dep audio-button-response 526 NA 14 1 25 gfff barrel
12325 1420580 FL generalizationPL tob_dep_bim_ 1527.64499996556 dep audio-button-response 465 NA 14 1 25 gfff barrel
12325 1420552 LF generalizationPL bim_dep_tob_ 2159.98499997659 bim audio-button-response 508 NA 14 1 25 gfff barrel
12325 1422716 FL generalizationPL bim_tob_dep_ 1197.14000006206 dep audio-button-response 475 NA 14 1 25 gfff barrel
12325 1422678 LF generalizationPL tob_dep_bim_ 701.5950000023 tob audio-button-response 418 NA 14 1 25 gfff barrel
12325 1459708 FL generalizationPL dep_tob_bim_ 1908.63499999978 tob audio-button-response 505 NA 15 1 25 gfff barrel
12325 1414932 LF generalizationPL tob_dep_bim_ NA NA audio-button-response 556 NA 14 1 25 gfff barrel
12325 1459048 FL generalizationPL bim_dep_tob_ 633 dep audio-button-response 555 NA 15 1 25 gfff barrel
12325 1459709 LF generalizationPL bim_tob_dep_ 2025.62000020407 bim audio-button-response 508 NA 15 1 25 gfff barrel
12325 1422677 FL generalizationPL tob_dep_bim_ 626.695000013569 tob audio-button-response 525 NA 14 1 25 gfff barrel
12375 1422680 LF generalizationPL dep_bim_tob_ 826.559999957681 bim audio-button-response 523 NA 14 1 75 bbbc jar
12375 1422715 LF generalizationPL bim_tob_dep_ 1498.43500001589 dep audio-button-response 473 NA 14 1 75 bbbc jar
12375 1422689 FL generalizationPL dep_bim_tob_ 819.909999991069 bim audio-button-response 440 NA 14 1 75 bbbc jar
12375 1459767 FL generalizationPL tob_bim_dep_ 381.66499999701 dep audio-button-response 550 NA 15 1 75 bbbc jar
12375 1422465 FL generalizationPL bim_dep_tob_ 1353.71500009205 dep audio-button-response 520 NA 14 1 75 bbbc jar
12375 1431969 FL generalizationPL dep_bim_tob_ 2296 bim audio-button-response 410 NA 14 1 75 bbbc jar
12375 1431998 LF generalizationPL dep_tob_bim_ 93.4200000010314 dep audio-button-response 523 NA 14 1 75 bbbc jar
12375 1431946 FL generalizationPL bim_tob_dep_ NA NA audio-button-response 460 NA 14 1 75 bbbc jar
12375 1459036 LF generalizationPL tob_dep_bim_ 917.490000021644 bim audio-button-response 473 NA 15 1 75 bbbc jar
12375 1459018 FL generalizationPL bim_tob_dep_ 1445.82499994431 dep audio-button-response 460 NA 15 1 75 bbbc jar
12375 1420204 LF generalizationPL tob_dep_bim_ 1720.77499999997 dep audio-button-response 473 NA 14 1 75 bbbc jar
12375 1458996 LF generalizationPL tob_bim_dep_ 832.990000000747 dep audio-button-response 443 NA 15 1 75 bbbc jar
12375 1459029 FL generalizationPL dep_tob_bim_ 158.100000000559 dep audio-button-response 520 NA 15 1 75 bbbc jar
12375 1459696 FL generalizationPL bim_dep_tob_ 502.210000006016 bim audio-button-response 479 NA 15 1 75 bbbc jar
12375 1431957 FL generalizationPL tob_dep_bim_ 629.929999995511 dep audio-button-response 470 NA 14 1 75 bbbc jar
12375 1457883 LF generalizationPL dep_tob_bim_ 507.649999985006 dep audio-button-response 553 NA 15 1 75 bbbc jar
12425 1459013 FL generalizationPL dep_tob_bim_ 574 dep audio-button-response 505 NA 15 1 25 effe barrel
12425 1414932 LF generalizationPL bim_tob_dep_ 942.309999983991 dep audio-button-response 526 NA 14 1 25 effe barrel
12425 1422473 LF generalizationPL tob_bim_dep_ 845.854999963194 dep audio-button-response 508 NA 14 1 25 effe barrel
12425 1422476 LF generalizationPL bim_tob_dep_ 1172.07499999495 tob audio-button-response 448 NA 14 1 25 effe barrel
12425 1431968 LF generalizationPL dep_tob_bim_ 1027.24500000477 dep audio-button-response 558 NA 14 1 25 effe barrel
12425 1431956 LF generalizationPL bim_dep_tob_ 586.5749999939 bim audio-button-response 498 NA 14 1 25 effe barrel
12425 1459048 FL generalizationPL dep_bim_tob_ 966 tob audio-button-response 525 NA 15 1 25 effe barrel
12425 1432007 LF generalizationPL tob_dep_bim_ 1273.23000000248 tob audio-button-response 508 NA 14 1 25 effe barrel
12425 1420180 FL generalizationPL bim_dep_tob_ 525.669999999984 tob audio-button-response 475 NA 14 1 25 effe barrel
12425 1422467 LF generalizationPL bim_tob_dep_ 1457.95999991242 dep audio-button-response 478 NA 14 1 25 effe barrel
12425 1431974 FL generalizationPL tob_bim_dep_ 1219.79000000283 bim audio-button-response 445 NA 14 1 25 effe barrel
12425 1459701 LF generalizationPL tob_dep_bim_ 925.56499998318 bim audio-button-response 498 NA 15 1 25 effe barrel
12425 1420165 FL generalizationPL dep_bim_tob_ 643.160000036005 tob audio-button-response 495 NA 14 1 25 effe barrel
12425 1431961 FL generalizationPL tob_bim_dep_ 192.809999993187 tob audio-button-response 525 NA 14 1 25 effe barrel
12425 1431946 FL generalizationPL dep_tob_bim_ 827.084999997169 tob audio-button-response 495 NA 14 1 25 effe barrel
12475 1422463 FL generalizationPL tob_dep_bim_ NA NA audio-button-response 460 NA 14 1 75 cabc jar
12475 1420199 FL generalizationPL bim_dep_tob_ 1007.72500000312 tob audio-button-response 500 NA 14 1 75 cabc jar
12475 1414932 LF generalizationPL tob_dep_bim_ 749.049999983981 bim audio-button-response 551 NA 14 1 75 cabc jar
12475 1431959 LF generalizationPL bim_dep_tob_ 1146.62000001408 dep audio-button-response 443 NA 14 1 75 cabc jar
12475 1459043 LF generalizationPL dep_bim_tob_ 1174 dep audio-button-response 443 NA 15 1 75 cabc jar
12475 1459067 LF generalizationPL dep_tob_bim_ 1057.87999997847 dep audio-button-response 493 NA 15 1 75 cabc jar
12475 1459767 FL generalizationPL dep_bim_tob_ 283.319999998668 dep audio-button-response 520 NA 15 1 75 cabc jar
12475 1431999 LF generalizationPL bim_dep_tob_ 570.880000013858 dep audio-button-response 503 NA 14 1 75 cabc jar
12475 1432323 LF generalizationPL dep_bim_tob_ 372 dep audio-button-response 443 NA 14 1 75 cabc jar
12475 1458996 LF generalizationPL tob_bim_dep_ 625.384999999369 dep audio-button-response 473 NA 15 1 75 cabc jar
12475 1459700 LF generalizationPL tob_bim_dep_ 994.964999990771 dep audio-button-response 473 NA 15 1 75 cabc jar
12475 1422678 LF generalizationPL bim_tob_dep_ 623.71499999793 dep audio-button-response 473 NA 14 1 75 cabc jar
12475 1431948 LF generalizationPL tob_bim_dep_ 745 tob audio-button-response 473 NA 14 1 75 cabc jar
12525 1431956 LF generalizationPL dep_tob_bim_ 722.880000015721 dep audio-button-response 558 NA 14 1 25 effg barrel
12525 1422476 LF generalizationPL dep_bim_tob_ 1576.90500000899 bim audio-button-response 478 NA 14 1 25 effg barrel
12525 1420573 LF generalizationPL dep_tob_bim_ 790 bim audio-button-response 498 NA 14 1 25 effg barrel
12525 1420163 FL generalizationPL dep_bim_tob_ 1955.32500000263 tob audio-button-response 445 NA 14 1 25 effg barrel
12525 1432003 LF generalizationPL bim_tob_dep_ 2346 tob audio-button-response 468 NA 14 1 25 effg barrel
12525 1459047 FL generalizationPL tob_dep_bim_ 1324.82500001788 tob audio-button-response 465 NA 15 1 25 effg barrel
12525 1431948 LF generalizationPL tob_bim_dep_ 760 dep audio-button-response 478 NA 14 1 25 effg barrel
12525 1432011 FL generalizationPL bim_dep_tob_ 460.564999841154 dep audio-button-response 505 NA 14 1 25 effg barrel
12525 1459708 FL generalizationPL tob_bim_dep_ 1635.569999984 dep audio-button-response 475 NA 15 1 25 effg barrel
12525 1422678 LF generalizationPL bim_tob_dep_ 744.89999999787 tob audio-button-response 478 NA 14 1 25 effg barrel
12525 1458996 LF generalizationPL tob_bim_dep_ 502.854999998817 dep audio-button-response 448 NA 15 1 25 effg barrel
12525 1459767 FL generalizationPL dep_bim_tob_ 71.2600000007078 dep audio-button-response 525 NA 15 1 25 effg barrel
12525 1422473 LF generalizationPL bim_dep_tob_ 2058.77000000328 tob audio-button-response 478 NA 14 1 25 effg barrel
12525 1422675 FL generalizationPL dep_bim_tob_ 991.82500000461 dep audio-button-response 505 NA 14 1 25 effg barrel
12525 1459015 LF generalizationPL dep_tob_bim_ 1911.08000004897 tob audio-button-response 498 NA 15 1 25 effg barrel
12525 1420180 FL generalizationPL bim_tob_dep_ 589.420000000042 tob audio-button-response 505 NA 14 1 25 effg barrel
12525 1420577 LF generalizationPL tob_bim_dep_ 1466.50500001851 bim audio-button-response 478 NA 14 1 25 effg barrel
12525 1422466 FL generalizationPL dep_bim_tob_ 356.259999971371 bim audio-button-response 475 NA 14 1 25 effg barrel
12525 1420199 FL generalizationPL tob_dep_bim_ 1435.80499998643 tob audio-button-response 475 NA 14 1 25 effg barrel
12575 1422681 LF generalizationPL bim_tob_dep_ 197.550000000745 bim audio-button-response 473 NA 14 1 75 cacb jar
12575 1459020 LF generalizationPL dep_tob_bim_ 730.814999999886 bim audio-button-response 473 NA 15 1 75 cacb jar
12575 1432075 FL generalizationPL dep_bim_tob_ 442.215000046417 dep audio-button-response 440 NA 14 1 75 cacb jar
12575 1432011 FL generalizationPL tob_bim_dep_ NA NA audio-button-response 410 NA 14 1 75 cacb jar
12575 1459709 LF generalizationPL bim_tob_dep_ 1191.89000013284 dep audio-button-response 473 NA 15 1 75 cacb jar
12575 1431992 FL generalizationPL tob_dep_bim_ NA NA audio-button-response 460 NA 14 1 75 cacb jar
12575 1459700 LF generalizationPL tob_dep_bim_ 1217.79500000412 dep audio-button-response 443 NA 15 1 75 cacb jar
12575 1431979 FL generalizationPL tob_dep_bim_ 844 dep audio-button-response 440 NA 14 1 75 cacb jar
12575 1431963 LF generalizationPL tob_dep_bim_ 955.520000003162 bim audio-button-response 503 NA 14 1 75 cacb jar
12575 1459003 FL generalizationPL dep_tob_bim_ 1132.68000003882 bim audio-button-response 440 NA 15 1 75 cacb jar
12575 1422677 FL generalizationPL tob_bim_dep_ NA NA audio-button-response 460 NA 14 1 75 cacb jar
12575 1431953 FL generalizationPL tob_bim_dep_ 1267.54999998957 tob audio-button-response 500 NA 14 1 75 cacb jar
12575 1422475 LF generalizationPL tob_bim_dep_ 2342.91499998653 tob audio-button-response 413 NA 14 1 75 cacb jar
12675 1431957 FL generalizationPL dep_tob_bim_ 655.995000008261 dep audio-button-response 440 NA 14 1 75 ccab jar
12675 1431960 LF generalizationPL dep_bim_tob_ 916.499999933876 dep audio-button-response 523 NA 14 1 75 ccab jar
12675 1420577 LF generalizationPL tob_bim_dep_ 895.170000032522 dep audio-button-response 473 NA 14 1 75 ccab jar
12675 1431956 LF generalizationPL dep_tob_bim_ 954.360000003362 bim audio-button-response 553 NA 14 1 75 ccab jar
12675 1459064 FL generalizationPL dep_tob_bim_ 1077.99999997951 tob audio-button-response 520 NA 15 1 75 ccab jar
12675 1422470 LF generalizationPL tob_bim_dep_ 1395.69999999367 bim audio-button-response 523 NA 14 1 75 ccab jar
12675 1459706 FL generalizationPL tob_dep_bim_ 1967.23499998916 tob audio-button-response 410 NA 15 1 75 ccab jar
12675 1459024 FL generalizationPL bim_tob_dep_ 677.824999991572 bim audio-button-response 490 NA 15 1 75 ccab jar
12675 1422679 FL generalizationPL dep_tob_bim_ 1490.98499980755 dep audio-button-response 460 NA 14 1 75 ccab jar
12675 1420165 FL generalizationPL dep_bim_tob_ 2006.3599999994 tob audio-button-response 490 NA 14 1 75 ccab jar
12775 1458992 FL generalizationPL dep_tob_bim_ 1303.24000003748 dep audio-button-response 460 NA 15 1 75 bbba jar
12775 1431946 FL generalizationPL dep_bim_tob_ 614.960000006249 bim audio-button-response 550 NA 14 1 75 bbba jar
12775 1422475 LF generalizationPL bim_dep_tob_ NA NA audio-button-response 503 NA 14 1 75 bbba jar
12775 1422679 FL generalizationPL bim_dep_tob_ 1120.87500002235 dep audio-button-response 520 NA 14 1 75 bbba jar
12775 1431989 LF generalizationPL bim_dep_tob_ 983.184999902733 bim audio-button-response 553 NA 14 1 75 bbba jar
12775 1420204 LF generalizationPL tob_dep_bim_ 2284.07500000001 tob audio-button-response 413 NA 14 1 75 bbba jar
12775 1420622 FL generalizationPL dep_tob_bim_ 669.594999868423 dep audio-button-response 440 NA 14 1 75 bbba jar
12775 1420573 LF generalizationPL dep_tob_bim_ 765 tob audio-button-response 493 NA 14 1 75 bbba jar
12875 1414937 FL generalizationPL tob_bim_dep_ 995.759999990696 dep audio-button-response 488 NA 14 1 75 baba jar
12875 1431960 LF generalizationPL bim_dep_tob_ NA NA audio-button-response 463 NA 14 1 75 baba jar
12875 1431972 FL generalizationPL tob_dep_bim_ 2093.41500001028 bim audio-button-response 470 NA 14 1 75 baba jar
12875 1422463 FL generalizationPL dep_tob_bim_ 633.959999999264 dep audio-button-response 520 NA 14 1 75 baba jar
12875 1422473 LF generalizationPL tob_dep_bim_ NA NA audio-button-response 443 NA 14 1 75 baba jar
12875 1431961 FL generalizationPL bim_dep_tob_ 485.80999999831 bim audio-button-response 490 NA 14 1 75 baba jar
12875 1459048 FL generalizationPL bim_dep_tob_ 681 bim audio-button-response 550 NA 15 1 75 baba jar
12875 1459057 FL generalizationPL dep_tob_bim_ 1959.94499999878 dep audio-button-response 490 NA 15 1 75 baba jar
12875 1431966 LF generalizationPL tob_bim_dep_ 784.335000003921 tob audio-button-response 443 NA 14 1 75 baba jar
12875 1422476 LF generalizationPL tob_bim_dep_ 1008.72499999241 dep audio-button-response 503 NA 14 1 75 baba jar
12875 1459013 FL generalizationPL bim_tob_dep_ 1054 tob audio-button-response 410 NA 15 1 75 baba jar
12875 1420169 LF generalizationPL tob_dep_bim_ 682.580000022426 dep audio-button-response 473 NA 14 1 75 baba jar
12875 1432007 LF generalizationPL tob_dep_bim_ 455.395000000834 tob audio-button-response 503 NA 14 1 75 baba jar
12875 1431969 FL generalizationPL bim_tob_dep_ 1489 tob audio-button-response 440 NA 14 1 75 baba jar
12975 1459001 FL generalizationPL tob_dep_bim_ 2088.96999999706 tob audio-button-response 550 NA 15 1 75 bbbd jar
12975 1431981 LF generalizationPL bim_dep_tob_ NA NA audio-button-response 413 NA 14 1 75 bbbd jar
12975 1431992 FL generalizationPL bim_dep_tob_ 1526 dep audio-button-response 520 NA 14 1 75 bbbd jar
12975 1432075 FL generalizationPL dep_tob_bim_ 530.10500012897 dep audio-button-response 500 NA 14 1 75 bbbd jar
12975 1422477 FL generalizationPL bim_tob_dep_ 990.629999985686 bim audio-button-response 520 NA 14 1 75 bbbd jar
12975 1422716 FL generalizationPL bim_dep_tob_ 541.704999981448 dep audio-button-response 440 NA 14 1 75 bbbd jar
12975 1431958 FL generalizationPL bim_dep_tob_ 601.6599999998 dep audio-button-response 520 NA 14 1 75 bbbd jar
12975 1431956 LF generalizationPL bim_dep_tob_ 1499.3549999781 tob audio-button-response 493 NA 14 1 75 bbbd jar
12975 1431974 FL generalizationPL tob_bim_dep_ 720.864999922924 dep audio-button-response 440 NA 14 1 75 bbbd jar
12975 1422689 FL generalizationPL bim_tob_dep_ 1901.95999998832 tob audio-button-response 470 NA 14 1 75 bbbd jar
12975 1458997 LF generalizationPL tob_bim_dep_ 551.355000003241 bim audio-button-response 553 NA 15 1 75 bbbd jar
12975 1459046 LF generalizationPL bim_tob_dep_ 2441 dep audio-button-response 413 NA 15 1 75 bbbd jar
12975 1431953 FL generalizationPL tob_bim_dep_ 855.970000033267 dep audio-button-response 440 NA 14 1 75 bbbd jar
12975 1432009 FL generalizationPL dep_bim_tob_ NA NA audio-button-response 460 NA 14 1 75 bbbd jar