resp subjID learning task fribbleID label rt trialType trialIndex acc Experiment.Version category frequency cueID bodyShape
10125 1422467 LF generalizationLP 10125_20125_30125_ tob 1174.96500001289 audio-button-response 556 0 14 1 25 eeee barrel
10125 1459702 FL generalizationLP 10125_21125_31225_ bim 1011 audio-button-response 413 0 15 1 25 eeee barrel
10125 1431944 FL generalizationLP 10125_20725_32225_ tob 909.650000001304 audio-button-response 425 0 14 1 25 eeee barrel
10125 1458992 FL generalizationLP 10125_21125_32425_ tob 2314.74999990314 audio-button-response 449 0 15 1 25 eeee barrel
10125 1431958 FL generalizationLP 10125_22125_31825_ dep 1047.25500000012 audio-button-response 423 1 14 1 25 eeee barrel
10125 1422675 FL generalizationLP 10125_20625_31225_ tob 1423.73499998939 audio-button-response 555 0 14 1 25 eeee barrel
10125 1420622 FL generalizationLP 10125_21825_31325_ dep 2385.07500011474 audio-button-response 547 1 14 1 25 eeee barrel
10125 1420573 LF generalizationLP 10125_21825_31325_ dep 1307 audio-button-response 444 1 14 1 25 eeee barrel
10125 1422477 FL generalizationLP 10125_22525_31225_ bim 1610.54500000319 audio-button-response 441 0 14 1 25 eeee barrel
10125 1420204 LF generalizationLP 10125_21225_31525_ tob 1991.19500000007 audio-button-response 544 0 14 1 25 eeee barrel
10125 1459708 FL generalizationLP 10125_20825_31125_ tob 2039.54999998678 audio-button-response 545 0 15 1 25 eeee barrel
10125 1422470 LF generalizationLP 10125_20225_31425_ tob 1142.25499995518 audio-button-response 418 0 14 1 25 eeee barrel
10175 1422473 LF generalizationLP 10175_20375_30875_ dep 1593.62999995938 audio-button-response 538 1 14 1 75 aaaa jar
10175 1415040 FL generalizationLP 10175_21975_30375_ dep 1031 audio-button-response 452 1 14 1 75 aaaa jar
10175 1422679 FL generalizationLP 10175_20975_31475_ dep 980.040000053123 audio-button-response 439 1 14 1 75 aaaa jar
10175 1420622 FL generalizationLP 10175_20575_32175_ dep 1533.08999957517 audio-button-response 545 1 14 1 75 aaaa jar
10175 1431999 LF generalizationLP 10175_20775_31975_ dep 1280.75500001432 audio-button-response 562 1 14 1 75 aaaa jar
10175 1459007 FL generalizationLP 10175_22375_31575_ dep 1668.80499990657 audio-button-response 419 1 15 1 75 aaaa jar
10175 1432003 LF generalizationLP 10175_21875_31075_ dep 2435 audio-button-response 422 1 14 1 75 aaaa jar
10175 1431969 FL generalizationLP 10175_21175_30675_ tob 1120 audio-button-response 567 0 14 1 75 aaaa jar
10175 1431942 LF generalizationLP 10175_22675_32075_ dep 1125.46999985352 audio-button-response 558 1 14 1 75 aaaa jar
10175 1420580 FL generalizationLP 10175_22775_31975_ dep 1534.97999999672 audio-button-response 419 1 14 1 75 aaaa jar
10175 1414937 FL generalizationLP 10175_21975_30575_ dep 1552.93000000529 audio-button-response 416 1 14 1 75 aaaa jar
10175 1414933 LF generalizationLP 10175_22775_31575_ dep 857 audio-button-response 415 1 14 1 75 aaaa jar
10175 1459078 LF generalizationLP 10175_21975_30875_ bim 1449.20000000007 audio-button-response 456 0 15 1 75 aaaa jar
10175 1420204 LF generalizationLP 10175_20375_32375_ dep 2105.08000000007 audio-button-response 576 1 14 1 75 aaaa jar
10175 1431965 FL generalizationLP 10175_21375_32075_ dep 2365 audio-button-response 441 1 14 1 75 aaaa jar
10175 1431961 FL generalizationLP 10175_22075_31975_ bim 930.144999991171 audio-button-response 427 0 14 1 75 aaaa jar
10175 1431979 FL generalizationLP 10175_22575_33575_ dep 2108 audio-button-response 565 1 14 1 75 aaaa jar
10175 1422681 LF generalizationLP 10175_23375_30975_ dep 1208.21499999869 audio-button-response 538 1 14 1 75 aaaa jar
10175 1432007 LF generalizationLP 10175_21875_32875_ dep 1486.48999999929 audio-button-response 536 1 14 1 75 aaaa jar
10225 1459048 FL generalizationLP 10225_21325_30125_ dep 224 audio-button-response 453 1 15 1 25 ffff barrel
10225 1422681 LF generalizationLP 10225_20525_31825_ tob 1673.75000000163 audio-button-response 564 0 14 1 25 ffff barrel
10225 1459003 FL generalizationLP 10225_21525_30725_ bim 2900.61499993317 audio-button-response 543 0 15 1 25 ffff barrel
10225 1459046 LF generalizationLP 10225_21525_32425_ dep 1458 audio-button-response 576 1 15 1 25 ffff barrel
10225 1459702 FL generalizationLP 10225_22125_31625_ bim 1466 audio-button-response 411 0 15 1 25 ffff barrel
10225 1422716 FL generalizationLP 10225_20425_32425_ bim 2148.10500014573 audio-button-response 543 0 14 1 25 ffff barrel
10225 1431968 LF generalizationLP 10225_20625_30725_ dep 1875.39500003913 audio-button-response 440 1 14 1 25 ffff barrel
10225 1459018 FL generalizationLP 10225_21725_31625_ tob 844.819999998435 audio-button-response 443 0 15 1 25 ffff barrel
10225 1459009 FL generalizationLP 10225_20725_31125_ tob 1092.07000000239 audio-button-response 573 0 15 1 25 ffff barrel
10225 1459078 LF generalizationLP 10225_20625_30825_ tob 1817.81999999995 audio-button-response 436 0 15 1 25 ffff barrel
10225 1420165 FL generalizationLP 10225_21425_31225_ dep 2053.72499994701 audio-button-response 407 1 14 1 25 ffff barrel
10275 1459057 FL generalizationLP 10275_21375_31275_ tob 1744.62499999936 audio-button-response 431 0 15 1 75 abbb jar
10275 1459020 LF generalizationLP 10275_22975_31275_ tob 1554.75000000023 audio-button-response 578 0 15 1 75 abbb jar
10275 1459001 FL generalizationLP 10275_20975_32375_ bim 1670.41999999492 audio-button-response 415 0 15 1 75 abbb jar
10275 1459109 LF generalizationLP 10275_22575_32375_ dep 1155.77499999199 audio-button-response 426 1 15 1 75 abbb jar
10275 1414937 FL generalizationLP 10275_23575_33075_ dep 1256.48499999079 audio-button-response 432 1 14 1 75 abbb jar
10275 1432075 FL generalizationLP 10275_22475_31575_ dep 2062.86000018008 audio-button-response 535 1 14 1 75 abbb jar
10275 1459708 FL generalizationLP 10275_20775_32575_ dep 1497.21500001033 audio-button-response 569 1 15 1 75 abbb jar
10275 1459029 FL generalizationLP 10275_21275_33375_ dep 1052.56999999983 audio-button-response 447 1 15 1 75 abbb jar
10275 1459046 LF generalizationLP 10275_23075_30675_ dep 1667 audio-button-response 562 1 15 1 75 abbb jar
10275 1431954 LF generalizationLP 10275_22075_31175_ bim 1049.44500001147 audio-button-response 536 0 14 1 75 abbb jar
10275 1431978 FL generalizationLP 10275_23375_33175_ bim 1939.74499999604 audio-button-response 443 0 14 1 75 abbb jar
10275 1459015 LF generalizationLP 10275_20175_33175_ tob 1617.66000004718 audio-button-response 450 0 15 1 75 abbb jar
10275 1459700 LF generalizationLP 10275_22975_33075_ dep 1654.45500001078 audio-button-response 556 1 15 1 75 abbb jar
10275 1459013 FL generalizationLP 10275_21275_33375_ bim 614 audio-button-response 569 0 15 1 75 abbb jar
10275 1420165 FL generalizationLP 10275_22475_31775_ dep 1946.34500000393 audio-button-response 437 1 14 1 75 abbb jar
10325 1431957 FL generalizationLP 10325_20925_32325_ tob 1691.23500000569 audio-button-response 557 0 14 1 25 efgf barrel
10325 1459047 FL generalizationLP 10325_20925_30625_ tob 2301.06500000693 audio-button-response 439 0 15 1 25 efgf barrel
10325 1415040 FL generalizationLP 10325_21725_31925_ dep 2222 audio-button-response 428 1 14 1 25 efgf barrel
10325 1431969 FL generalizationLP 10325_21925_30625_ tob 1094 audio-button-response 557 0 14 1 25 efgf barrel
10325 1431968 LF generalizationLP 10325_20225_30325_ dep 2282.83499996178 audio-button-response 434 1 14 1 25 efgf barrel
10325 1431966 LF generalizationLP 10325_20425_30625_ dep 1266.64000000164 audio-button-response 548 1 14 1 25 efgf barrel
10325 1422678 LF generalizationLP 10325_22025_31025_ tob 1427.51499999937 audio-button-response 558 0 14 1 25 efgf barrel
10325 1431948 LF generalizationLP 10325_21725_31825_ dep 1087 audio-button-response 548 1 14 1 25 efgf barrel
10325 1431961 FL generalizationLP 10325_20825_30125_ tob 1165.15499999514 audio-button-response 445 0 14 1 25 efgf barrel
10325 1422473 LF generalizationLP 10325_20425_30625_ tob 982.184999971651 audio-button-response 546 0 14 1 25 efgf barrel
10325 1431984 FL generalizationLP 10325_21025_32525_ dep 1208.44499999657 audio-button-response 571 1 14 1 25 efgf barrel
10325 1422675 FL generalizationLP 10325_20525_31925_ dep 1543.67499999353 audio-button-response 537 1 14 1 25 efgf barrel
10325 1459015 LF generalizationLP 10325_20825_30825_ dep 2581.01500000339 audio-button-response 440 1 15 1 25 efgf barrel
10325 1432052 FL generalizationLP 10325_21825_31125_ bim 822.479999973439 audio-button-response 551 0 14 1 25 efgf barrel
10325 1431959 LF generalizationLP 10325_21425_31125_ bim 2325.5600000266 audio-button-response 560 0 14 1 25 efgf barrel
10375 1431963 LF generalizationLP 10375_23175_32375_ bim 1661.82000000845 audio-button-response 534 0 14 1 75 aaac jar
10375 1415040 FL generalizationLP 10375_20375_30475_ dep 2012 audio-button-response 414 1 14 1 75 aaac jar
10375 1458996 LF generalizationLP 10375_23175_30175_ dep 1611.59500000032 audio-button-response 538 1 15 1 75 aaac jar
10375 1431974 FL generalizationLP 10375_21675_30975_ dep 1500.66999997944 audio-button-response 551 1 14 1 75 aaac jar
10375 1422475 LF generalizationLP 10375_22475_31775_ bim 1370.77999999747 audio-button-response 544 0 14 1 75 aaac jar
10375 1459009 FL generalizationLP 10375_21275_31875_ dep 1572.26000000094 audio-button-response 533 1 15 1 75 aaac jar
10375 1420204 LF generalizationLP 10375_21775_30375_ dep 1598.40499999991 audio-button-response 572 1 14 1 75 aaac jar
10375 1431959 LF generalizationLP 10375_21175_33275_ bim 1525.51499998663 audio-button-response 554 0 14 1 75 aaac jar
10375 1458998 LF generalizationLP 10375_22875_31975_ dep 1878.46500001615 audio-button-response 532 1 15 1 75 aaac jar
10375 1414932 LF generalizationLP 10375_23375_31375_ bim 1636.38000001083 audio-button-response 435 0 14 1 75 aaac jar
10375 1431989 LF generalizationLP 10375_23575_31775_ dep 2356.06500005815 audio-button-response 450 1 14 1 75 aaac jar
10375 1420177 FL generalizationLP 10375_21775_33075_ bim 1818.05500001065 audio-button-response 557 0 14 1 75 aaac jar
10375 1431978 FL generalizationLP 10375_21375_31575_ tob 2461.92499999597 audio-button-response 429 0 14 1 75 aaac jar
10425 1457883 LF generalizationLP 10425_21525_30925_ tob 1600.80000001471 audio-button-response 412 0 15 1 25 fgfg barrel
10425 1422678 LF generalizationLP 10425_20125_30725_ tob 1259.92499999853 audio-button-response 570 0 14 1 25 fgfg barrel
10425 1459024 FL generalizationLP 10425_21625_31625_ bim 1892.00500000152 audio-button-response 425 0 15 1 25 fgfg barrel
10425 1459007 FL generalizationLP 10425_21525_32425_ dep 2598.65000005811 audio-button-response 441 1 15 1 25 fgfg barrel
10425 1431961 FL generalizationLP 10425_21025_31425_ tob 1243.1399999914 audio-button-response 415 0 14 1 25 fgfg barrel
10425 1431946 FL generalizationLP 10425_21425_31625_ tob 973.469999997178 audio-button-response 411 0 14 1 25 fgfg barrel
10425 1422473 LF generalizationLP 10425_22025_32225_ tob 1731.78500001086 audio-button-response 566 0 14 1 25 fgfg barrel
10425 1431989 LF generalizationLP 10425_22125_32225_ dep 1567.40499997977 audio-button-response 426 1 14 1 25 fgfg barrel
10425 1459018 FL generalizationLP 10425_20125_30625_ tob 2650.00999998301 audio-button-response 411 0 15 1 25 fgfg barrel
10425 1431998 LF generalizationLP 10425_22325_32525_ dep 1552.43999999948 audio-button-response 410 1 14 1 25 fgfg barrel
10425 1431953 FL generalizationLP 10425_22525_32525_ tob 1247.32500000391 audio-button-response 565 0 14 1 25 fgfg barrel
10425 1431952 LF generalizationLP 10425_20725_31925_ dep 703.609999996843 audio-button-response 578 1 14 1 25 fgfg barrel
10475 1459067 LF generalizationLP 10475_22675_31875_ dep 1547.98000003211 audio-button-response 424 1 15 1 75 bcbc jar
10475 1420185 LF generalizationLP 10475_20675_31575_ dep 874.595000175759 audio-button-response 438 1 14 1 75 bcbc jar
10475 1459046 LF generalizationLP 10475_20775_32975_ dep 1841 audio-button-response 532 1 15 1 75 bcbc jar
10475 1420169 LF generalizationLP 10475_20675_30575_ dep 2305.24999997579 audio-button-response 538 1 14 1 75 bcbc jar
10475 1431946 FL generalizationLP 10475_21575_33575_ bim 1559.46000000404 audio-button-response 439 0 14 1 75 bcbc jar
10475 1420177 FL generalizationLP 10475_22975_32575_ dep 1742.91000000085 audio-button-response 547 1 14 1 75 bcbc jar
10475 1459036 LF generalizationLP 10475_23375_31375_ tob 1237.05500003416 audio-button-response 574 0 15 1 75 bcbc jar
10475 1431961 FL generalizationLP 10475_23375_31175_ bim 1308.990000005 audio-button-response 421 0 14 1 75 bcbc jar
10475 1420573 LF generalizationLP 10475_21075_31275_ dep 672 audio-button-response 446 1 14 1 75 bcbc jar
10475 1459052 FL generalizationLP 10475_23175_33375_ tob 2061.76000041887 audio-button-response 443 0 15 1 75 bcbc jar
10525 1459767 FL generalizationLP 10525_20425_32025_ dep 1269.42500000214 audio-button-response 421 1 15 1 25 hfee barrel
10525 1422681 LF generalizationLP 10525_21325_31925_ tob 1048.96999999986 audio-button-response 550 0 14 1 25 hfee barrel
10525 1459002 FL generalizationLP 10525_21625_32225_ tob 1979.70999986865 audio-button-response 531 0 15 1 25 hfee barrel
10525 1459001 FL generalizationLP 10525_21425_30325_ bim 1147.40999999049 audio-button-response 451 0 15 1 25 hfee barrel
10525 1459700 LF generalizationLP 10525_22025_31425_ dep 1645.96999998321 audio-button-response 572 1 15 1 25 hfee barrel
10525 1422475 LF generalizationLP 10525_21325_30725_ tob 1457.40499999374 audio-button-response 542 0 14 1 25 hfee barrel
10525 1459013 FL generalizationLP 10525_21525_30125_ tob 1703 audio-button-response 537 0 15 1 25 hfee barrel
10525 1420580 FL generalizationLP 10525_20425_32425_ dep 1615.72499998147 audio-button-response 451 1 14 1 25 hfee barrel
10525 1459052 FL generalizationLP 10525_20625_32425_ tob 1166.98500001803 audio-button-response 445 0 15 1 25 hfee barrel
10525 1420199 FL generalizationLP 10525_20525_31425_ dep 1527.44999999413 audio-button-response 567 1 14 1 25 hfee barrel
10525 1459078 LF generalizationLP 10525_20725_31925_ dep 2169.46000000008 audio-button-response 430 1 15 1 25 hfee barrel
10525 1431953 FL generalizationLP 10525_22225_31725_ tob 1801.91999999806 audio-button-response 547 0 14 1 25 hfee barrel
10525 1432030 LF generalizationLP 10525_21725_32225_ tob 1075.12500000303 audio-button-response 560 0 14 1 25 hfee barrel
10525 1459064 FL generalizationLP 10525_20625_32025_ dep 1649.99999990687 audio-button-response 427 1 15 1 25 hfee barrel
10575 1459709 LF generalizationLP 10575_21675_31675_ dep 1661.83500015177 audio-button-response 548 1 15 1 75 baac jar
10575 1431957 FL generalizationLP 10575_20675_31175_ dep 1973.39500000817 audio-button-response 553 1 14 1 75 baac jar
10575 1420622 FL generalizationLP 10575_21475_33175_ dep 1931.76000006497 audio-button-response 535 1 14 1 75 baac jar
10575 1431942 LF generalizationLP 10575_21575_32975_ dep 1733.85499999858 audio-button-response 534 1 14 1 75 baac jar
10575 1422679 FL generalizationLP 10575_21075_30175_ dep 1212.99999998882 audio-button-response 443 1 14 1 75 baac jar
10575 1422463 FL generalizationLP 10575_22375_32975_ dep 1058.59000000055 audio-button-response 435 1 14 1 75 baac jar
10575 1459064 FL generalizationLP 10575_22675_32975_ dep 1793.00000006333 audio-button-response 411 1 15 1 75 baac jar
10575 1459067 LF generalizationLP 10575_23475_33175_ tob 2802.78500006534 audio-button-response 432 0 15 1 75 baac jar
10575 1420552 LF generalizationLP 10575_20175_32075_ tob 1065.8350000158 audio-button-response 542 0 14 1 75 baac jar
10575 1414937 FL generalizationLP 10575_21375_30775_ dep 786.639999976614 audio-button-response 422 1 14 1 75 baac jar
10575 1431966 LF generalizationLP 10575_21675_32375_ tob 945.569999996223 audio-button-response 564 0 14 1 75 baac jar
10625 1459709 LF generalizationLP 10625_20925_31125_ tob 1420.36999994889 audio-button-response 540 0 15 1 25 hffe barrel
10625 1414937 FL generalizationLP 10625_21425_30225_ dep 2031.11000001081 audio-button-response 412 1 14 1 25 hffe barrel
10625 1422675 FL generalizationLP 10625_21725_30825_ dep 1130.39499998558 audio-button-response 543 1 14 1 25 hffe barrel
10625 1459706 FL generalizationLP 10625_21325_30225_ dep 922.209999989718 audio-button-response 571 1 15 1 25 hffe barrel
10625 1431954 LF generalizationLP 10625_21025_31925_ tob 956.834999989951 audio-button-response 568 0 14 1 25 hffe barrel
10625 1422677 FL generalizationLP 10625_21125_32525_ bim 1815.73500001105 audio-button-response 443 0 14 1 25 hffe barrel
10625 1422472 FL generalizationLP 10625_21125_30625_ dep 1408.05499999988 audio-button-response 443 1 14 1 25 hffe barrel
10625 1420180 FL generalizationLP 10625_20225_30825_ tob 1190.88999999996 audio-button-response 571 0 14 1 25 hffe barrel
10625 1431960 LF generalizationLP 10625_20625_30525_ dep 2244.1000000108 audio-button-response 428 1 14 1 25 hffe barrel
10625 1414933 LF generalizationLP 10625_21425_32025_ dep 2000 audio-button-response 435 1 14 1 25 hffe barrel
10625 1431992 FL generalizationLP 10625_21225_32325_ dep 1542 audio-button-response 419 1 14 1 25 hffe barrel
10625 1431953 FL generalizationLP 10625_21325_31625_ bim 2228.10499998741 audio-button-response 535 0 14 1 25 hffe barrel
10625 1431989 LF generalizationLP 10625_20225_31925_ tob 2386.5700000897 audio-button-response 416 0 14 1 25 hffe barrel
10625 1422477 FL generalizationLP 10625_21925_31925_ dep 2041.51000001002 audio-button-response 425 1 14 1 25 hffe barrel
10625 1459703 FL generalizationLP 10625_22225_30225_ tob 1693.78999993205 audio-button-response 555 0 15 1 25 hffe barrel
10625 1420169 LF generalizationLP 10625_22525_31425_ dep 1449.02499997988 audio-button-response 558 1 14 1 25 hffe barrel
10625 1459078 LF generalizationLP 10625_22425_31125_ tob 1998.06000000006 audio-button-response 424 0 15 1 25 hffe barrel
10625 1459024 FL generalizationLP 10625_20725_31425_ bim 1449.96999998693 audio-button-response 443 0 15 1 25 hffe barrel
10625 1420165 FL generalizationLP 10625_20725_32125_ dep 1822.09999999031 audio-button-response 441 1 14 1 25 hffe barrel
10625 1459048 FL generalizationLP 10625_20325_32525_ tob 382 audio-button-response 437 0 15 1 25 hffe barrel
10625 1459036 LF generalizationLP 10625_21125_30625_ bim 1270.03000001423 audio-button-response 544 0 15 1 25 hffe barrel
10675 1431965 FL generalizationLP 10675_20875_31275_ dep 2063 audio-button-response 435 1 14 1 75 cbcd jar
10675 1431953 FL generalizationLP 10675_22875_30375_ dep 1524.71000002697 audio-button-response 559 1 14 1 75 cbcd jar
10675 1459013 FL generalizationLP 10675_21475_31575_ bim 1339 audio-button-response 559 0 15 1 75 cbcd jar
10675 1420622 FL generalizationLP 10675_22775_33075_ dep 1484.93999987841 audio-button-response 549 1 14 1 75 cbcd jar
10675 1432003 LF generalizationLP 10675_23075_31975_ bim 1159 audio-button-response 450 0 14 1 75 cbcd jar
10675 1431997 FL generalizationLP 10675_23075_31875_ tob 1341.27500001341 audio-button-response 537 0 14 1 75 cbcd jar
10675 1459052 FL generalizationLP 10675_20875_31675_ dep 1943.63000011072 audio-button-response 431 1 15 1 75 cbcd jar
10675 1422465 FL generalizationLP 10675_23275_30475_ dep 1124.85500006005 audio-button-response 445 1 14 1 75 cbcd jar
10675 1431978 FL generalizationLP 10675_20575_31775_ tob 1775.37999999186 audio-button-response 423 0 14 1 75 cbcd jar
10675 1459067 LF generalizationLP 10675_22175_30475_ dep 2197.65500002541 audio-button-response 416 1 15 1 75 cbcd jar
10675 1422676 LF generalizationLP 10675_20175_33475_ dep 1848.66500000132 audio-button-response 412 1 14 1 75 cbcd jar
10675 1459699 LF generalizationLP 10675_23375_30175_ dep 2193 audio-button-response 456 1 15 1 75 cbcd jar
10675 1459025 LF generalizationLP 10675_21975_33075_ bim 1502.69500003196 audio-button-response 548 0 15 1 75 cbcd jar
10675 1414957 FL generalizationLP 10675_21075_32175_ dep 2027.4100000097 audio-button-response 448 1 14 1 75 cbcd jar
10675 1459706 FL generalizationLP 10675_23075_30275_ dep 2653.9449999982 audio-button-response 569 1 15 1 75 cbcd jar
10675 1431966 LF generalizationLP 10675_22375_33575_ tob 1127.89499999781 audio-button-response 562 0 14 1 75 cbcd jar
10725 1431981 LF generalizationLP 10725_21225_31425_ dep 1085.85999999195 audio-button-response 568 1 14 1 25 heef barrel
10725 1459013 FL generalizationLP 10725_22425_31525_ tob 1420 audio-button-response 543 0 15 1 25 heef barrel
10725 1459699 LF generalizationLP 10725_20125_30625_ bim 1457 audio-button-response 412 0 15 1 25 heef barrel
10725 1431974 FL generalizationLP 10725_21425_31125_ tob 1754.04499995057 audio-button-response 541 0 14 1 25 heef barrel
10725 1459109 LF generalizationLP 10725_20725_31725_ dep 2591.20999998413 audio-button-response 416 1 15 1 25 heef barrel
10725 1432301 LF generalizationLP 10725_22125_30925_ tob 1387.66999999643 audio-button-response 558 0 14 1 25 heef barrel
10725 1459003 FL generalizationLP 10725_21325_32225_ bim 3365.60999997891 audio-button-response 571 0 15 1 25 heef barrel
10725 1459078 LF generalizationLP 10725_20525_32425_ bim 2570.80500000005 audio-button-response 446 0 15 1 25 heef barrel
10725 1459007 FL generalizationLP 10725_21325_32225_ tob 2365.58500025421 audio-button-response 431 0 15 1 25 heef barrel
10725 1459046 LF generalizationLP 10725_21325_30525_ dep 2452 audio-button-response 570 1 15 1 25 heef barrel
10725 1459057 FL generalizationLP 10725_21825_32125_ tob 2622.19999999797 audio-button-response 425 0 15 1 25 heef barrel
10725 1458996 LF generalizationLP 10725_20125_30925_ dep 1612.88000000059 audio-button-response 560 1 15 1 25 heef barrel
10725 1422465 FL generalizationLP 10725_20925_31425_ tob 839.88500002306 audio-button-response 453 0 14 1 25 heef barrel
10725 1422715 LF generalizationLP 10725_22025_30725_ dep 2429.43499999819 audio-button-response 532 1 14 1 25 heef barrel
10725 1422678 LF generalizationLP 10725_22525_30925_ dep 1263.04000000167 audio-button-response 554 1 14 1 25 heef barrel
10775 1422716 FL generalizationLP 10775_20175_33275_ dep 1913.90000004321 audio-button-response 549 1 14 1 75 ccbc jar
10775 1459046 LF generalizationLP 10775_23575_31475_ dep 2036 audio-button-response 556 1 15 1 75 ccbc jar
10775 1459020 LF generalizationLP 10775_22875_30875_ bim 1483.03499999974 audio-button-response 574 0 15 1 75 ccbc jar
10775 1431961 FL generalizationLP 10775_21675_32375_ tob 810.354999994161 audio-button-response 439 0 14 1 75 ccbc jar
10775 1422678 LF generalizationLP 10775_20575_31475_ dep 741.04499999882 audio-button-response 542 1 14 1 75 ccbc jar
10775 1459015 LF generalizationLP 10775_21275_30575_ tob 1744.52000000747 audio-button-response 442 0 15 1 75 ccbc jar
10775 1422476 LF generalizationLP 10775_21075_30275_ dep 1264.03500000015 audio-button-response 542 1 14 1 75 ccbc jar
10775 1458992 FL generalizationLP 10775_21575_32375_ dep 1367.71499994211 audio-button-response 411 1 15 1 75 ccbc jar
10775 1422467 LF generalizationLP 10775_22275_31975_ dep 1191.14499993157 audio-button-response 564 1 14 1 75 ccbc jar
10775 1432007 LF generalizationLP 10775_22875_32775_ dep 994.635000002687 audio-button-response 542 1 14 1 75 ccbc jar
10775 1414932 LF generalizationLP 10775_20975_33475_ bim 2002.55500001367 audio-button-response 429 0 14 1 75 ccbc jar
10775 1459018 FL generalizationLP 10775_21975_33075_ dep 2852.61000005994 audio-button-response 431 1 15 1 75 ccbc jar
10775 1422681 LF generalizationLP 10775_22275_30575_ dep 1021.1799999997 audio-button-response 558 1 14 1 75 ccbc jar
10775 1422676 LF generalizationLP 10775_23375_31775_ dep 1925.45500000048 audio-button-response 410 1 14 1 75 ccbc jar
10825 1459007 FL generalizationLP 10825_21625_30825_ tob 933.799999766052 audio-button-response 453 0 15 1 25 eggg barrel
10825 1422677 FL generalizationLP 10825_21825_31025_ dep 1766.0249999899 audio-button-response 411 1 14 1 25 eggg barrel
10825 1422477 FL generalizationLP 10825_22325_30225_ tob 1649.57499998854 audio-button-response 435 0 14 1 25 eggg barrel
10825 1459109 LF generalizationLP 10825_20925_31225_ dep 3378.59499990009 audio-button-response 424 1 15 1 25 eggg barrel
10825 1459025 LF generalizationLP 10825_21925_31125_ dep 1162.21500001848 audio-button-response 556 1 15 1 25 eggg barrel
10825 1422472 FL generalizationLP 10825_20925_31225_ tob 1912.29999999632 audio-button-response 439 0 14 1 25 eggg barrel
10825 1459696 FL generalizationLP 10825_21425_30125_ dep 363.234999997076 audio-button-response 416 1 15 1 25 eggg barrel
10825 1432007 LF generalizationLP 10825_20825_31825_ tob 695.709999999963 audio-button-response 546 0 14 1 25 eggg barrel
10825 1459048 FL generalizationLP 10825_21025_32025_ bim 935 audio-button-response 421 0 15 1 25 eggg barrel
10825 1458992 FL generalizationLP 10825_21925_30625_ tob 1340.60500003397 audio-button-response 435 0 15 1 25 eggg barrel
10825 1459699 LF generalizationLP 10825_22525_31625_ dep 1326 audio-button-response 426 1 15 1 25 eggg barrel
10825 1432301 LF generalizationLP 10825_21525_31725_ dep 1548.91500000667 audio-button-response 562 1 14 1 25 eggg barrel
10825 1431978 FL generalizationLP 10825_22525_31825_ dep 1225.13500000059 audio-button-response 425 1 14 1 25 eggg barrel
10825 1458996 LF generalizationLP 10825_21025_31125_ dep 2042.01999999897 audio-button-response 558 1 15 1 25 eggg barrel
10825 1420169 LF generalizationLP 10825_21525_31325_ dep 1056.49499990977 audio-button-response 554 1 14 1 25 eggg barrel
10825 1459036 LF generalizationLP 10825_22325_31425_ bim 1779.73499998916 audio-button-response 538 0 15 1 25 eggg barrel
10825 1459706 FL generalizationLP 10825_21225_30525_ dep 1448.93499999307 audio-button-response 557 1 15 1 25 eggg barrel
10875 1422681 LF generalizationLP 10875_21575_32875_ dep 1528.53999999934 audio-button-response 554 1 14 1 75 abca jar
10875 1422689 FL generalizationLP 10875_21475_30475_ tob 1359.28000000422 audio-button-response 553 0 14 1 75 abca jar
10875 1431974 FL generalizationLP 10875_23575_33075_ bim 2162.11000003386 audio-button-response 531 0 14 1 75 abca jar
10875 1420577 LF generalizationLP 10875_21475_32875_ dep 1809.33000001824 audio-button-response 566 1 14 1 75 abca jar
10875 1459018 FL generalizationLP 10875_22875_32275_ dep 1371.32000003476 audio-button-response 437 1 15 1 75 abca jar
10875 1431949 FL generalizationLP 10875_23175_31275_ dep 1174.3650000426 audio-button-response 433 1 14 1 75 abca jar
10875 1414945 FL generalizationLP 10875_21175_33475_ dep 1361.72500019893 audio-button-response 442 1 14 1 75 abca jar
10875 1459020 LF generalizationLP 10875_21075_32675_ tob 2022.36500000028 audio-button-response 542 0 15 1 75 abca jar
10875 1458996 LF generalizationLP 10875_21875_33375_ bim 2017.96999999898 audio-button-response 562 0 15 1 75 abca jar
10875 1458997 LF generalizationLP 10875_22575_30275_ tob 1190.79000002239 audio-button-response 416 0 15 1 75 abca jar
10875 1422676 LF generalizationLP 10875_21075_30975_ bim 1488.83000000019 audio-button-response 444 0 14 1 75 abca jar
10875 1459709 LF generalizationLP 10875_22175_30475_ tob 3283.6800001096 audio-button-response 566 0 15 1 75 abca jar
10875 1431999 LF generalizationLP 10875_21775_31175_ dep 2030.94500000589 audio-button-response 556 1 14 1 75 abca jar
10875 1431970 LF generalizationLP 10875_22475_30575_ dep 1037.23999997601 audio-button-response 432 1 14 1 75 abca jar
10875 1422678 LF generalizationLP 10875_22575_30675_ dep 1596.26000000199 audio-button-response 578 1 14 1 75 abca jar
10925 1420169 LF generalizationLP 10925_20525_31725_ dep 1387.63500005007 audio-button-response 566 1 14 1 25 fgeg barrel
10925 1431999 LF generalizationLP 10925_20425_30625_ tob 1251.54999998631 audio-button-response 552 0 14 1 25 fgeg barrel
10925 1459002 FL generalizationLP 10925_20625_31025_ dep 3270.39499999955 audio-button-response 561 1 15 1 25 fgeg barrel
10925 1420580 FL generalizationLP 10925_21425_32525_ dep 1428.77499997849 audio-button-response 439 1 14 1 25 fgeg barrel
10925 1431960 LF generalizationLP 10925_22425_32225_ dep 2313.42000002041 audio-button-response 412 1 14 1 25 fgeg barrel
10925 1459708 FL generalizationLP 10925_21525_30725_ tob 1826.98500002152 audio-button-response 571 0 15 1 25 fgeg barrel
10925 1459036 LF generalizationLP 10925_20425_31925_ bim 927.559999981895 audio-button-response 570 0 15 1 25 fgeg barrel
10925 1431956 LF generalizationLP 10925_20925_32125_ bim 1434.70499999239 audio-button-response 452 0 14 1 25 fgeg barrel
10925 1459039 LF generalizationLP 10925_20525_31825_ dep 1635 audio-button-response 426 1 15 1 25 fgeg barrel
10925 1420180 FL generalizationLP 10925_21025_31625_ tob 765.734999999928 audio-button-response 573 0 14 1 25 fgeg barrel
10925 1459767 FL generalizationLP 10925_20925_31025_ dep 3455.84500000044 audio-button-response 411 1 15 1 25 fgeg barrel
10925 1459009 FL generalizationLP 10925_21425_32025_ tob 1131.31000000075 audio-button-response 539 0 15 1 25 fgeg barrel
10925 1459048 FL generalizationLP 10925_21125_32425_ dep 1168 audio-button-response 407 1 15 1 25 fgeg barrel
10925 1422470 LF generalizationLP 10925_21325_32125_ dep 1214.40499997698 audio-button-response 452 1 14 1 25 fgeg barrel
10925 1431949 FL generalizationLP 10925_20425_32125_ dep 1905.08499997668 audio-button-response 417 1 14 1 25 fgeg barrel
10975 1459057 FL generalizationLP 10975_23375_31575_ tob 2140.26999999979 audio-button-response 449 0 15 1 75 acbc jar
10975 1459039 LF generalizationLP 10975_21675_31875_ dep 1156 audio-button-response 438 1 15 1 75 acbc jar
10975 1458997 LF generalizationLP 10975_23475_31275_ tob 1647.99000008497 audio-button-response 414 0 15 1 75 acbc jar
10975 1459709 LF generalizationLP 10975_23275_30175_ dep 2056.42999988049 audio-button-response 552 1 15 1 75 acbc jar
10975 1422677 FL generalizationLP 10975_22275_30175_ dep 2314.46500000311 audio-button-response 423 1 14 1 75 acbc jar
10975 1459703 FL generalizationLP 10975_22875_30575_ dep 1518.05499999318 audio-button-response 557 1 15 1 75 acbc jar
10975 1459109 LF generalizationLP 10975_23175_31475_ dep 1729.04000000563 audio-button-response 418 1 15 1 75 acbc jar
10975 1431956 LF generalizationLP 10975_20275_32275_ dep 1213.22999999393 audio-button-response 422 1 14 1 75 acbc jar
10975 1431953 FL generalizationLP 10975_21775_31375_ dep 1940.33999997191 audio-button-response 549 1 14 1 75 acbc jar
10975 1459001 FL generalizationLP 10975_21275_30675_ tob 1878.58499999857 audio-button-response 435 0 15 1 75 acbc jar
10975 1431968 LF generalizationLP 10975_23475_30975_ dep 1929.75999996997 audio-button-response 432 1 14 1 75 acbc jar
11025 1431953 FL generalizationLP 11025_20925_30225_ bim 1946.94000005256 audio-button-response 569 0 14 1 25 fgge barrel
11025 1459699 LF generalizationLP 11025_20225_32025_ dep 1750 audio-button-response 442 1 15 1 25 fgge barrel
11025 1431992 FL generalizationLP 11025_21925_30725_ dep 1215 audio-button-response 435 1 14 1 25 fgge barrel
11025 1422463 FL generalizationLP 11025_22025_31725_ bim 2127.99000000092 audio-button-response 417 0 14 1 25 fgge barrel
11025 1422679 FL generalizationLP 11025_22325_31825_ dep 1773.96499994211 audio-button-response 429 1 14 1 25 fgge barrel
11025 1459052 FL generalizationLP 11025_21725_30225_ dep 2085.30499972403 audio-button-response 441 1 15 1 25 fgge barrel
11025 1422678 LF generalizationLP 11025_21325_31725_ tob 1683.52500000037 audio-button-response 534 0 14 1 25 fgge barrel
11025 1431998 LF generalizationLP 11025_22025_30325_ tob 924.805000000517 audio-button-response 430 0 14 1 25 fgge barrel
11025 1431952 LF generalizationLP 11025_22025_30825_ tob 2464.59000000323 audio-button-response 532 0 14 1 25 fgge barrel
11025 1459009 FL generalizationLP 11025_21925_30525_ dep 3122.98499999812 audio-button-response 529 1 15 1 25 fgge barrel
11025 1420177 FL generalizationLP 11025_20825_31325_ tob 1927.37999997917 audio-button-response 573 0 14 1 25 fgge barrel
11025 1432009 FL generalizationLP 11025_22525_31825_ tob 2208 audio-button-response 447 0 14 1 25 fgge barrel
11025 1458992 FL generalizationLP 11025_22425_32125_ tob 1339.14499985985 audio-button-response 443 0 15 1 25 fgge barrel
11025 1420169 LF generalizationLP 11025_21925_30425_ dep 1416.27499996684 audio-button-response 544 1 14 1 25 fgge barrel
11075 1432075 FL generalizationLP 11075_23375_31175_ dep 1182.51499999315 audio-button-response 565 1 14 1 75 aaba jar
11075 1431959 LF generalizationLP 11075_22775_33575_ dep 1483.17500000121 audio-button-response 548 1 14 1 75 aaba jar
11075 1431953 FL generalizationLP 11075_22975_31675_ dep 1026.68999996968 audio-button-response 551 1 14 1 75 aaba jar
11075 1431981 LF generalizationLP 11075_20875_30675_ bim 1115.17499998445 audio-button-response 546 0 14 1 75 aaba jar
11075 1420580 FL generalizationLP 11075_22675_32375_ dep 1413.76500000479 audio-button-response 409 1 14 1 75 aaba jar
11075 1431984 FL generalizationLP 11075_23475_32375_ dep 786.834999918938 audio-button-response 567 1 14 1 75 aaba jar
11075 1459696 FL generalizationLP 11075_23275_32775_ tob 440.629999997327 audio-button-response 436 0 15 1 75 aaba jar
11075 1459702 FL generalizationLP 11075_21175_30975_ bim 1329 audio-button-response 427 0 15 1 75 aaba jar
11125 1431942 LF generalizationLP 11125_20625_31125_ dep 2345.33999999985 audio-button-response 532 1 14 1 25 gegf barrel
11125 1459029 FL generalizationLP 11125_21925_30825_ tob 2134.89499999559 audio-button-response 413 0 15 1 25 gegf barrel
11125 1431981 LF generalizationLP 11125_20825_32125_ dep 924.569999973755 audio-button-response 570 1 14 1 25 gegf barrel
11125 1431999 LF generalizationLP 11125_21525_30825_ tob 1386.05500000995 audio-button-response 560 0 14 1 25 gegf barrel
11125 1459767 FL generalizationLP 11125_20825_30525_ dep 1960.45499999658 audio-button-response 415 1 15 1 25 gegf barrel
11125 1431944 FL generalizationLP 11125_22325_31725_ bim 1349.24999999953 audio-button-response 435 0 14 1 25 gegf barrel
11125 1458998 LF generalizationLP 11125_21725_30525_ tob 2434.06999995932 audio-button-response 570 0 15 1 25 gegf barrel
11125 1459015 LF generalizationLP 11125_22025_32425_ dep 1677.25500004599 audio-button-response 434 1 15 1 25 gegf barrel
11125 1414937 FL generalizationLP 11125_20425_32325_ dep 1799.0099999879 audio-button-response 426 1 14 1 25 gegf barrel
11125 1420171 LF generalizationLP 11125_21425_31625_ tob 1689.70500000432 audio-button-response 546 0 14 1 25 gegf barrel
11125 1459046 LF generalizationLP 11125_20725_31025_ dep 1222 audio-button-response 578 1 15 1 25 gegf barrel
11125 1422680 LF generalizationLP 11125_21425_30625_ dep 572.954999981448 audio-button-response 444 1 14 1 25 gegf barrel
11125 1420552 LF generalizationLP 11125_20325_30925_ dep 1947.8699999745 audio-button-response 562 1 14 1 25 gegf barrel
11125 1422467 LF generalizationLP 11125_20525_32425_ dep 1764.06499999575 audio-button-response 572 1 14 1 25 gegf barrel
11125 1459078 LF generalizationLP 11125_21525_30425_ tob 1640.63500000001 audio-button-response 420 0 15 1 25 gegf barrel
11125 1458996 LF generalizationLP 11125_21725_30725_ dep 2179.07500000001 audio-button-response 552 1 15 1 25 gegf barrel
11125 1431953 FL generalizationLP 11125_22325_30325_ bim 2382.95999995898 audio-button-response 543 0 14 1 25 gegf barrel
11125 1432301 LF generalizationLP 11125_21025_30725_ tob 2418.49500000535 audio-button-response 532 0 14 1 25 gegf barrel
11175 1422676 LF generalizationLP 11175_21675_32975_ bim 1249.2500000007 audio-button-response 446 0 14 1 75 cabb jar
11175 1420169 LF generalizationLP 11175_23075_32375_ dep 1451.23000000603 audio-button-response 560 1 14 1 75 cabb jar
11175 1432075 FL generalizationLP 11175_22675_31975_ dep 1953.65500007756 audio-button-response 547 1 14 1 75 cabb jar
11175 1415040 FL generalizationLP 11175_21775_33175_ dep 1147 audio-button-response 448 1 14 1 75 cabb jar
11175 1459046 LF generalizationLP 11175_21275_30875_ tob 2878 audio-button-response 552 0 15 1 75 cabb jar
11175 1459697 FL generalizationLP 11175_23575_31475_ bim 919.770000000426 audio-button-response 427 0 15 1 75 cabb jar
11175 1459007 FL generalizationLP 11175_20475_32575_ dep 2680.00000016764 audio-button-response 413 1 15 1 75 cabb jar
11175 1431970 LF generalizationLP 11175_21875_32875_ tob 1565.0349999778 audio-button-response 420 0 14 1 75 cabb jar
11175 1422466 FL generalizationLP 11175_20875_31875_ bim 410.659999994095 audio-button-response 561 0 14 1 75 cabb jar
11175 1414945 FL generalizationLP 11175_21075_30475_ dep 1859.55000016838 audio-button-response 408 1 14 1 75 cabb jar
11175 1422475 LF generalizationLP 11175_20375_30475_ dep 1709.71999998437 audio-button-response 552 1 14 1 75 cabb jar
11175 1459696 FL generalizationLP 11175_22775_31275_ dep 751.909999991767 audio-button-response 422 1 15 1 75 cabb jar
11175 1431960 LF generalizationLP 11175_20575_30575_ dep 1792.51000005752 audio-button-response 444 1 14 1 75 cabb jar
11175 1431963 LF generalizationLP 11175_21075_33275_ bim 1323.8849999907 audio-button-response 554 0 14 1 75 cabb jar
11175 1420204 LF generalizationLP 11175_22875_30275_ dep 1645.10499999998 audio-button-response 556 1 14 1 75 cabb jar
11225 1459701 LF generalizationLP 11225_20325_30225_ dep 1867.70999999135 audio-button-response 438 1 15 1 25 geeg barrel
11225 1431969 FL generalizationLP 11225_22425_31625_ tob 1613 audio-button-response 571 0 14 1 25 geeg barrel
11225 1420573 LF generalizationLP 11225_21625_30625_ dep 836 audio-button-response 434 1 14 1 25 geeg barrel
11225 1459003 FL generalizationLP 11225_21425_30125_ dep 2125.74499996845 audio-button-response 557 1 15 1 25 geeg barrel
11225 1458998 LF generalizationLP 11225_21225_30725_ tob 1431.96499999613 audio-button-response 574 0 15 1 25 geeg barrel
11225 1420552 LF generalizationLP 11225_22525_31325_ bim 616.174999973737 audio-button-response 576 0 14 1 25 geeg barrel
11225 1420180 FL generalizationLP 11225_21425_30125_ tob 974.334999999963 audio-button-response 545 0 14 1 25 geeg barrel
11225 1431953 FL generalizationLP 11225_21725_30525_ tob 1761.78000005893 audio-button-response 537 0 14 1 25 geeg barrel
11225 1431972 FL generalizationLP 11225_20525_32225_ tob 554.794999945443 audio-button-response 565 0 14 1 25 geeg barrel
11275 1420552 LF generalizationLP 11275_21075_30675_ tob 688.979999977164 audio-button-response 570 0 14 1 75 cbca jar
11275 1431970 LF generalizationLP 11275_20175_32175_ tob 915.525000018533 audio-button-response 428 0 14 1 75 cbca jar
11275 1431974 FL generalizationLP 11275_23475_31475_ dep 1250.86000002921 audio-button-response 565 1 14 1 75 cbca jar
11275 1459700 LF generalizationLP 11275_21575_31775_ dep 1865.22999999579 audio-button-response 554 1 15 1 75 cbca jar
11275 1422472 FL generalizationLP 11275_20475_32575_ dep 1472.65000000334 audio-button-response 431 1 14 1 75 cbca jar
11275 1420163 FL generalizationLP 11275_22375_31575_ dep 1421.26999999164 audio-button-response 553 1 14 1 75 cbca jar
11275 1431952 LF generalizationLP 11275_20575_32175_ dep 1767.07499999611 audio-button-response 542 1 14 1 75 cbca jar
11275 1432052 FL generalizationLP 11275_21075_30675_ dep 1904.74000002723 audio-button-response 541 1 14 1 75 cbca jar
11275 1459067 LF generalizationLP 11275_20175_31175_ tob 2469.3950000219 audio-button-response 452 0 15 1 75 cbca jar
11275 1431966 LF generalizationLP 11275_20775_30575_ tob 881.0150000063 audio-button-response 570 0 14 1 75 cbca jar
11275 1459003 FL generalizationLP 11275_20675_33475_ dep 2341.73999994528 audio-button-response 537 1 15 1 75 cbca jar
11275 1420171 LF generalizationLP 11275_20375_33375_ dep 1576.75500000187 audio-button-response 550 1 14 1 75 cbca jar
11325 1459018 FL generalizationLP 11325_22525_30425_ tob 2594.79000000283 audio-button-response 433 0 15 1 25 gegg barrel
11325 1420573 LF generalizationLP 11325_22325_30925_ dep 1055 audio-button-response 452 1 14 1 25 gegg barrel
11325 1459001 FL generalizationLP 11325_22225_31525_ tob 1593.80500001134 audio-button-response 433 0 15 1 25 gegg barrel
11325 1459696 FL generalizationLP 11325_20225_31925_ tob 2053.98999998579 audio-button-response 396 0 15 1 25 gegg barrel
11325 1431984 FL generalizationLP 11325_22125_31025_ dep 1675.60999980196 audio-button-response 545 1 14 1 25 gegg barrel
11325 1431948 LF generalizationLP 11325_20125_32025_ dep 1557 audio-button-response 554 1 14 1 25 gegg barrel
11325 1459007 FL generalizationLP 11325_20925_30725_ tob 1075.44000027701 audio-button-response 451 0 15 1 25 gegg barrel
11325 1431944 FL generalizationLP 11325_21925_30825_ tob 1221.35000000009 audio-button-response 441 0 14 1 25 gegg barrel
11325 1420177 FL generalizationLP 11325_21025_30625_ bim 1910.82000001916 audio-button-response 533 0 14 1 25 gegg barrel
11325 1422679 FL generalizationLP 11325_20825_31325_ dep 999.934999970719 audio-button-response 421 1 14 1 25 gegg barrel
11325 1422466 FL generalizationLP 11325_21125_31025_ bim 486.769999959506 audio-button-response 547 0 14 1 25 gegg barrel
11325 1432323 LF generalizationLP 11325_21925_32225_ tob 866 audio-button-response 570 0 14 1 25 gegg barrel
11325 1459048 FL generalizationLP 11325_22225_30525_ tob 573 audio-button-response 429 0 15 1 25 gegg barrel
11325 1459701 LF generalizationLP 11325_20225_30425_ tob 2416.02000000421 audio-button-response 452 0 15 1 25 gegg barrel
11325 1420580 FL generalizationLP 11325_22525_31825_ dep 1517.89999997709 audio-button-response 433 1 14 1 25 gegg barrel
11325 1414957 FL generalizationLP 11325_22025_30925_ tob 1153.96999999939 audio-button-response 426 0 14 1 25 gegg barrel
11375 1459078 LF generalizationLP 11375_22875_31675_ dep 2076.69999999995 audio-button-response 410 1 15 1 75 aaca jar
11375 1431965 FL generalizationLP 11375_22475_33575_ dep 1746 audio-button-response 425 1 14 1 75 aaca jar
11375 1458998 LF generalizationLP 11375_21475_31475_ dep 931.569999956992 audio-button-response 558 1 15 1 75 aaca jar
11375 1459697 FL generalizationLP 11375_20475_31975_ bim 2086.94499999908 audio-button-response 431 0 15 1 75 aaca jar
11375 1432030 LF generalizationLP 11375_20975_31075_ dep 1363.13500000688 audio-button-response 550 1 14 1 75 aaca jar
11375 1422466 FL generalizationLP 11375_22875_32575_ dep 807.79499997152 audio-button-response 545 1 14 1 75 aaca jar
11375 1458992 FL generalizationLP 11375_23175_31775_ dep 1942.66000017524 audio-button-response 451 1 15 1 75 aaca jar
11375 1459013 FL generalizationLP 11375_21975_31175_ bim 1275 audio-button-response 567 0 15 1 75 aaca jar
11375 1432301 LF generalizationLP 11375_22975_30275_ dep 1030.35500000988 audio-button-response 564 1 14 1 75 aaca jar
11375 1459046 LF generalizationLP 11375_21475_31975_ dep 1552 audio-button-response 574 1 15 1 75 aaca jar
11425 1432009 FL generalizationLP 11425_21425_32125_ tob 1361 audio-button-response 439 0 14 1 25 gege barrel
11425 1459039 LF generalizationLP 11425_20925_30725_ dep 2054 audio-button-response 430 1 15 1 25 gege barrel
11425 1422463 FL generalizationLP 11425_21825_30325_ tob 1449.98000000126 audio-button-response 431 0 14 1 25 gege barrel
11425 1431978 FL generalizationLP 11425_22225_31225_ dep 1960.6000000058 audio-button-response 417 1 14 1 25 gege barrel
11425 1432007 LF generalizationLP 11425_20625_31525_ dep 1167.69500000012 audio-button-response 534 1 14 1 25 gege barrel
11425 1431942 LF generalizationLP 11425_20825_30925_ tob 2113.55999996886 audio-button-response 576 0 14 1 25 gege barrel
11425 1459020 LF generalizationLP 11425_20325_32025_ bim 1347.74999999994 audio-button-response 546 0 15 1 25 gege barrel
11425 1432003 LF generalizationLP 11425_21925_30825_ dep 2105 audio-button-response 442 1 14 1 25 gege barrel
11425 1459018 FL generalizationLP 11425_21825_30825_ tob 1395.18500003032 audio-button-response 441 0 15 1 25 gege barrel
11425 1422678 LF generalizationLP 11425_21225_31225_ dep 1530.9149999994 audio-button-response 572 1 14 1 25 gege barrel
11425 1431997 FL generalizationLP 11425_20225_30625_ tob 1850.37000011653 audio-button-response 535 0 14 1 25 gege barrel
11425 1422475 LF generalizationLP 11425_22225_30325_ bim 1651.69500000775 audio-button-response 576 0 14 1 25 gege barrel
11425 1431961 FL generalizationLP 11425_21225_32125_ tob 1056.44499999471 audio-button-response 437 0 14 1 25 gege barrel
11425 1432011 FL generalizationLP 11425_20625_31525_ dep 368.214999791235 audio-button-response 557 1 14 1 25 gege barrel
11425 1459696 FL generalizationLP 11425_21625_30525_ tob 1575.19500001217 audio-button-response 398 0 15 1 25 gege barrel
11425 1459047 FL generalizationLP 11425_21725_31525_ tob 1747.24999995669 audio-button-response 419 0 15 1 25 gege barrel
11425 1458998 LF generalizationLP 11425_20425_30825_ tob 2054.40500000259 audio-button-response 566 0 15 1 25 gege barrel
11425 1422470 LF generalizationLP 11425_21525_30425_ tob 1651.09500003746 audio-button-response 456 0 14 1 25 gege barrel
11425 1432075 FL generalizationLP 11425_21725_31825_ bim 2399.37500003725 audio-button-response 541 0 14 1 25 gege barrel
11475 1420552 LF generalizationLP 11475_23475_31375_ bim 1773.71999999741 audio-button-response 538 0 14 1 75 acaa jar
11475 1422689 FL generalizationLP 11475_21775_32275_ dep 1766.81500000996 audio-button-response 559 1 14 1 75 acaa jar
11475 1431992 FL generalizationLP 11475_23575_33175_ dep 1044 audio-button-response 441 1 14 1 75 acaa jar
11475 1420163 FL generalizationLP 11475_21075_32875_ dep 2151.54000000621 audio-button-response 547 1 14 1 75 acaa jar
11475 1459767 FL generalizationLP 11475_21475_31475_ dep 1947.37499999977 audio-button-response 423 1 15 1 75 acaa jar
11475 1422465 FL generalizationLP 11475_21275_32375_ dep 1579.67000000644 audio-button-response 439 1 14 1 75 acaa jar
11475 1420165 FL generalizationLP 11475_20875_32475_ dep 1781.61000000546 audio-button-response 409 1 14 1 75 acaa jar
11475 1422680 LF generalizationLP 11475_21275_30775_ tob 1935.31500000972 audio-button-response 430 0 14 1 75 acaa jar
11475 1420622 FL generalizationLP 11475_23575_31375_ dep 1207.84500008449 audio-button-response 557 1 14 1 75 acaa jar
11475 1422476 LF generalizationLP 11475_20575_31375_ dep 1246.02000000596 audio-button-response 558 1 14 1 75 acaa jar
11475 1459706 FL generalizationLP 11475_23375_30675_ dep 1502.03500001226 audio-button-response 549 1 15 1 75 acaa jar
11525 1422467 LF generalizationLP 11525_21125_32525_ dep 1381.82999996934 audio-button-response 538 1 14 1 25 eggf barrel
11525 1414933 LF generalizationLP 11525_21525_30725_ dep 1142 audio-button-response 439 1 14 1 25 eggf barrel
11525 1459025 LF generalizationLP 11525_21125_31725_ bim 1516.67500007898 audio-button-response 564 0 15 1 25 eggf barrel
11525 1432007 LF generalizationLP 11525_20725_31725_ tob 761.309999998077 audio-button-response 548 0 14 1 25 eggf barrel
11525 1459708 FL generalizationLP 11525_21825_31625_ tob 3074.5600000082 audio-button-response 529 0 15 1 25 eggf barrel
11525 1420199 FL generalizationLP 11525_22425_31925_ dep 2231.78999999072 audio-button-response 559 1 14 1 25 eggf barrel
11525 1422475 LF generalizationLP 11525_20125_30925_ tob 1664.32999999961 audio-button-response 538 0 14 1 25 eggf barrel
11525 1414957 FL generalizationLP 11525_22225_31225_ tob 1349.05000000435 audio-button-response 406 0 14 1 25 eggf barrel
11525 1420622 FL generalizationLP 11525_21025_31025_ dep 2024.71499983221 audio-button-response 555 1 14 1 25 eggf barrel
11525 1414945 FL generalizationLP 11525_21725_30325_ dep 1962.30499958619 audio-button-response 434 1 14 1 25 eggf barrel
11525 1431997 FL generalizationLP 11525_22425_30725_ dep 1916.56500007957 audio-button-response 531 1 14 1 25 eggf barrel
11525 1431949 FL generalizationLP 11525_20325_30525_ dep 1145.08500002557 audio-button-response 447 1 14 1 25 eggf barrel
11525 1422466 FL generalizationLP 11525_21025_31825_ tob 411.469999991823 audio-button-response 539 0 14 1 25 eggf barrel
11525 1431956 LF generalizationLP 11525_21825_30425_ bim 1280.59999999823 audio-button-response 412 0 14 1 25 eggf barrel
11525 1422678 LF generalizationLP 11525_21425_32425_ dep 1423.45500000013 audio-button-response 552 1 14 1 25 eggf barrel
11525 1459057 FL generalizationLP 11525_20725_31025_ tob 1979.56999999954 audio-button-response 427 0 15 1 25 eggf barrel
11525 1431979 FL generalizationLP 11525_22025_31125_ tob 1463 audio-button-response 561 0 14 1 25 eggf barrel
11525 1457883 LF generalizationLP 11525_22325_30125_ tob 2099.15500000352 audio-button-response 410 0 15 1 25 eggf barrel
11525 1459064 FL generalizationLP 11525_21525_30825_ dep 1060.00000005588 audio-button-response 433 1 15 1 25 eggf barrel
11575 1420169 LF generalizationLP 11575_21075_32975_ dep 978.224999969825 audio-button-response 574 1 14 1 75 bcac jar
11575 1431954 LF generalizationLP 11575_22775_31675_ bim 1173.17500000354 audio-button-response 576 0 14 1 75 bcac jar
11575 1459020 LF generalizationLP 11575_20275_32775_ dep 1836.43500000017 audio-button-response 560 1 15 1 75 bcac jar
11575 1422680 LF generalizationLP 11575_20975_31475_ bim 2453.26999999816 audio-button-response 412 0 14 1 75 bcac jar
11575 1422679 FL generalizationLP 11575_22275_30275_ dep 1051.65999988094 audio-button-response 409 1 14 1 75 bcac jar
11575 1431961 FL generalizationLP 11575_22475_33375_ bim 1016.61500000046 audio-button-response 433 0 14 1 75 bcac jar
11575 1431956 LF generalizationLP 11575_20675_32875_ bim 1719.93999998085 audio-button-response 438 0 14 1 75 bcac jar
11575 1431998 LF generalizationLP 11575_23375_32375_ tob 1670.81499999948 audio-button-response 434 0 14 1 75 bcac jar
11575 1458996 LF generalizationLP 11575_22875_30575_ dep 804.420000000391 audio-button-response 572 1 15 1 75 bcac jar
11575 1420177 FL generalizationLP 11575_22475_33575_ dep 2242.35499999486 audio-button-response 561 1 14 1 75 bcac jar
11625 1459699 LF generalizationLP 11625_21525_31325_ tob 1926 audio-button-response 416 0 15 1 25 eeeg barrel
11625 1422475 LF generalizationLP 11625_21025_32025_ tob 1360.31000001822 audio-button-response 540 0 14 1 25 eeeg barrel
11625 1459015 LF generalizationLP 11625_21125_31625_ dep 901.754999998957 audio-button-response 426 1 15 1 25 eeeg barrel
11625 1459043 LF generalizationLP 11625_20225_31425_ tob 1296 audio-button-response 562 0 15 1 25 eeeg barrel
11625 1414933 LF generalizationLP 11625_21125_30825_ dep 1303 audio-button-response 453 1 14 1 25 eeeg barrel
11625 1431974 FL generalizationLP 11625_20325_30825_ tob 1747.26999993436 audio-button-response 557 0 14 1 25 eeeg barrel
11625 1431952 LF generalizationLP 11625_22425_30725_ tob 2279.01500000735 audio-button-response 562 0 14 1 25 eeeg barrel
11625 1420552 LF generalizationLP 11625_20925_30125_ dep 2124.06999996165 audio-button-response 556 1 14 1 25 eeeg barrel
11625 1458992 FL generalizationLP 11625_21325_31025_ tob 1123.55999997817 audio-button-response 431 0 15 1 25 eeeg barrel
11625 1459052 FL generalizationLP 11625_21225_30625_ dep 1815.8350000158 audio-button-response 413 1 15 1 25 eeeg barrel
11625 1431958 FL generalizationLP 11625_21325_30225_ dep 1762.82500000007 audio-button-response 421 1 14 1 25 eeeg barrel
11625 1432007 LF generalizationLP 11625_21325_30125_ tob 897.70999999746 audio-button-response 562 0 14 1 25 eeeg barrel
11625 1431978 FL generalizationLP 11625_22025_30925_ dep 1084.31999999448 audio-button-response 407 1 14 1 25 eeeg barrel
11625 1431966 LF generalizationLP 11625_21825_30325_ dep 1772.54999999423 audio-button-response 560 1 14 1 25 eeeg barrel
11625 1420573 LF generalizationLP 11625_20725_31625_ bim 898 audio-button-response 424 0 14 1 25 eeeg barrel
11625 1459036 LF generalizationLP 11625_22125_31025_ bim 1744.30499994196 audio-button-response 548 0 15 1 25 eeeg barrel
11625 1431989 LF generalizationLP 11625_21225_32125_ dep 1762.48000003397 audio-button-response 410 1 14 1 25 eeeg barrel
11625 1431954 LF generalizationLP 11625_22225_32425_ tob 825.064999982715 audio-button-response 544 0 14 1 25 eeeg barrel
11675 1420199 FL generalizationLP 11675_21375_31075_ tob 1339.17500000098 audio-button-response 535 0 14 1 75 abac jar
11675 1459701 LF generalizationLP 11675_21375_32875_ bim 1406.69500001241 audio-button-response 434 0 15 1 75 abac jar
11675 1431963 LF generalizationLP 11675_20675_32475_ bim 1252.38499999978 audio-button-response 556 0 14 1 75 abac jar
11675 1459002 FL generalizationLP 11675_22775_31175_ dep 1285.845000064 audio-button-response 557 1 15 1 75 abac jar
11675 1414945 FL generalizationLP 11675_22975_32075_ dep 1671.78499978036 audio-button-response 446 1 14 1 75 abac jar
11725 1431979 FL generalizationLP 11725_21225_32425_ tob 1154 audio-button-response 555 0 14 1 25 fegf barrel
11725 1457883 LF generalizationLP 11725_21425_30425_ tob 1414.6850000252 audio-button-response 442 0 15 1 25 fegf barrel
11725 1459048 FL generalizationLP 11725_22425_31525_ bim 456 audio-button-response 433 0 15 1 25 fegf barrel
11725 1459696 FL generalizationLP 11725_22325_30925_ tob 488.099999987753 audio-button-response 404 0 15 1 25 fegf barrel
11725 1432052 FL generalizationLP 11725_21725_32125_ bim 1340.72999999626 audio-button-response 549 0 14 1 25 fegf barrel
11725 1420165 FL generalizationLP 11725_20125_30225_ tob 954.874999995809 audio-button-response 427 0 14 1 25 fegf barrel
11725 1422715 LF generalizationLP 11725_20425_31725_ dep 1699.26500000292 audio-button-response 538 1 14 1 25 fegf barrel
11725 1431992 FL generalizationLP 11725_20825_30225_ dep 864 audio-button-response 447 1 14 1 25 fegf barrel
11725 1431974 FL generalizationLP 11725_21325_30325_ tob 1133.55999998748 audio-button-response 567 0 14 1 25 fegf barrel
11725 1420163 FL generalizationLP 11725_20925_30825_ tob 2069.89500000782 audio-button-response 573 0 14 1 25 fegf barrel
11725 1432301 LF generalizationLP 11725_22425_32025_ tob 1508.52000000305 audio-button-response 576 0 14 1 25 fegf barrel
11775 1422463 FL generalizationLP 11775_21575_30875_ dep 1779.31499999977 audio-button-response 433 1 14 1 75 aaab jar
11775 1431946 FL generalizationLP 11775_21375_30875_ bim 1310.71999999403 audio-button-response 449 0 14 1 75 aaab jar
11775 1432007 LF generalizationLP 11775_23475_30375_ tob 667.580000001122 audio-button-response 574 0 14 1 75 aaab jar
11775 1422470 LF generalizationLP 11775_20175_31275_ dep 1381.56499998877 audio-button-response 428 1 14 1 75 aaab jar
11775 1459009 FL generalizationLP 11775_20275_30575_ dep 1596.47000000044 audio-button-response 557 1 15 1 75 aaab jar
11775 1459036 LF generalizationLP 11775_21375_32275_ tob 1570.27000002563 audio-button-response 554 0 15 1 75 aaab jar
11775 1458997 LF generalizationLP 11775_22875_31975_ tob 1220.69000010379 audio-button-response 438 0 15 1 75 aaab jar
11775 1459708 FL generalizationLP 11775_21375_32975_ dep 1418.84500000742 audio-button-response 543 1 15 1 75 aaab jar
11825 1431998 LF generalizationLP 11825_20325_30425_ tob 1715.54499999911 audio-button-response 418 0 14 1 25 feeg barrel
11825 1420185 LF generalizationLP 11825_20625_31325_ dep 2270.6500000786 audio-button-response 424 1 14 1 25 feeg barrel
11825 1414957 FL generalizationLP 11825_22125_30625_ tob 2001.30999999237 audio-button-response 412 0 14 1 25 feeg barrel
11825 1422716 FL generalizationLP 11825_21825_30225_ bim 2185.59499992989 audio-button-response 561 0 14 1 25 feeg barrel
11825 1422676 LF generalizationLP 11825_21125_31625_ tob 1761.88999999972 audio-button-response 426 0 14 1 25 feeg barrel
11825 1414933 LF generalizationLP 11825_21825_32125_ dep 1296 audio-button-response 419 1 14 1 25 feeg barrel
11825 1420552 LF generalizationLP 11825_22025_31925_ bim 765.344999963418 audio-button-response 550 0 14 1 25 feeg barrel
11825 1422675 FL generalizationLP 11825_22225_32125_ dep 1435.09499999345 audio-button-response 535 1 14 1 25 feeg barrel
11825 1422466 FL generalizationLP 11825_20825_31225_ bim 341.95000003092 audio-button-response 571 0 14 1 25 feeg barrel
11825 1459700 LF generalizationLP 11825_21025_31625_ dep 2368.01499998546 audio-button-response 558 1 15 1 25 feeg barrel
11825 1422467 LF generalizationLP 11825_21525_31825_ dep 1775.06500005256 audio-button-response 544 1 14 1 25 feeg barrel
11825 1431946 FL generalizationLP 11825_20725_31125_ tob 1857.5400000118 audio-button-response 441 0 14 1 25 feeg barrel
11825 1431972 FL generalizationLP 11825_20725_32425_ tob 1068.93500004662 audio-button-response 563 0 14 1 25 feeg barrel
11825 1459025 LF generalizationLP 11825_22325_32125_ bim 1453.68000003509 audio-button-response 568 0 15 1 25 feeg barrel
11825 1459047 FL generalizationLP 11825_20225_32425_ tob 1302.3749999702 audio-button-response 445 0 15 1 25 feeg barrel
11875 1431959 LF generalizationLP 11875_21475_32575_ dep 1381.66999997338 audio-button-response 542 1 14 1 75 baab jar
11875 1459703 FL generalizationLP 11875_21275_30175_ dep 934.185000020079 audio-button-response 549 1 15 1 75 baab jar
11875 1422467 LF generalizationLP 11875_20175_32375_ dep 1458.84500001557 audio-button-response 546 1 14 1 75 baab jar
11875 1422675 FL generalizationLP 11875_22475_30275_ dep 1553.99499999476 audio-button-response 547 1 14 1 75 baab jar
11875 1459002 FL generalizationLP 11875_23575_33475_ bim 2531.93000005558 audio-button-response 549 0 15 1 75 baab jar
11875 1431948 LF generalizationLP 11875_21575_31575_ bim 966 audio-button-response 558 0 14 1 75 baab jar
11875 1459039 LF generalizationLP 11875_22375_30775_ tob 1920 audio-button-response 424 0 15 1 75 baab jar
11875 1459708 FL generalizationLP 11875_22075_32675_ dep 1204.65999998851 audio-button-response 565 1 15 1 75 baab jar
11875 1459702 FL generalizationLP 11875_20375_31575_ bim 1249 audio-button-response 447 0 15 1 75 baab jar
11875 1459067 LF generalizationLP 11875_20875_33275_ tob 1633.65999981761 audio-button-response 430 0 15 1 75 baab jar
11875 1422475 LF generalizationLP 11875_20875_32975_ dep 1300.27499998687 audio-button-response 574 1 14 1 75 baab jar
11875 1431979 FL generalizationLP 11875_22075_33275_ dep 1779 audio-button-response 571 1 14 1 75 baab jar
11875 1414932 LF generalizationLP 11875_22275_30575_ bim 1734.26999998628 audio-button-response 445 0 14 1 75 baab jar
11875 1431957 FL generalizationLP 11875_20975_32275_ dep 827.409999998054 audio-button-response 555 1 14 1 75 baab jar
11875 1459036 LF generalizationLP 11875_22875_30775_ dep 1401.24999999534 audio-button-response 568 1 15 1 75 baab jar
11875 1431981 LF generalizationLP 11875_21675_33575_ bim 1055.57000002591 audio-button-response 578 0 14 1 75 baab jar
11875 1431960 LF generalizationLP 11875_21375_32175_ dep 1787.37500007264 audio-button-response 410 1 14 1 75 baab jar
11925 1431968 LF generalizationLP 11925_20825_32225_ dep 1787.20000002068 audio-button-response 448 1 14 1 25 fegg barrel
11925 1420199 FL generalizationLP 11925_21825_31625_ tob 1330.94499999424 audio-button-response 571 0 14 1 25 fegg barrel
11925 1422465 FL generalizationLP 11925_22325_31225_ tob 1649.44000006653 audio-button-response 409 0 14 1 25 fegg barrel
11925 1420180 FL generalizationLP 11925_22325_30625_ tob 2112.28500000003 audio-button-response 529 0 14 1 25 fegg barrel
11925 1431966 LF generalizationLP 11925_21025_30525_ dep 1351.82500000519 audio-button-response 576 1 14 1 25 fegg barrel
11925 1432075 FL generalizationLP 11925_22125_30725_ bim 2220.17999994569 audio-button-response 555 0 14 1 25 fegg barrel
11925 1422678 LF generalizationLP 11925_21525_31425_ tob 1135.19000000088 audio-button-response 576 0 14 1 25 fegg barrel
11925 1431954 LF generalizationLP 11925_21125_31725_ tob 1283.14499999397 audio-button-response 558 0 14 1 25 fegg barrel
11925 1422477 FL generalizationLP 11925_20625_30425_ tob 2034.4449999975 audio-button-response 431 0 14 1 25 fegg barrel
11925 1431959 LF generalizationLP 11925_21725_31625_ tob 1965.48999997322 audio-button-response 562 0 14 1 25 fegg barrel
11925 1431965 FL generalizationLP 11925_21825_30325_ dep 1698 audio-button-response 423 1 14 1 25 fegg barrel
11925 1431942 LF generalizationLP 11925_21025_32525_ tob 1337.15000003576 audio-button-response 566 0 14 1 25 fegg barrel
11925 1459047 FL generalizationLP 11925_20625_31425_ tob 1129.43000002997 audio-button-response 409 0 15 1 25 fegg barrel
11925 1459001 FL generalizationLP 11925_20725_32125_ tob 1990.77000000398 audio-button-response 419 0 15 1 25 fegg barrel
11925 1420573 LF generalizationLP 11925_22025_32425_ dep 1372 audio-button-response 450 1 14 1 25 fegg barrel
11925 1415040 FL generalizationLP 11925_22325_32325_ dep 1671 audio-button-response 450 1 14 1 25 fegg barrel
11925 1432011 FL generalizationLP 11925_20525_30825_ dep 728.269999846816 audio-button-response 549 1 14 1 25 fegg barrel
11925 1459043 LF generalizationLP 11925_22425_32325_ tob 1342 audio-button-response 554 0 15 1 25 fegg barrel
11925 1414932 LF generalizationLP 11925_20325_32025_ dep 1975.7099999988 audio-button-response 443 1 14 1 25 fegg barrel
11925 1431957 FL generalizationLP 11925_21025_32125_ bim 2147.72999999695 audio-button-response 543 0 14 1 25 fegg barrel
11925 1420204 LF generalizationLP 11925_21525_31625_ tob 1099.80000000016 audio-button-response 570 0 14 1 25 fegg barrel
11925 1414957 FL generalizationLP 11925_21325_32425_ tob 1436.02999999712 audio-button-response 418 0 14 1 25 fegg barrel
11925 1459020 LF generalizationLP 11925_20425_30525_ bim 1206.97999999992 audio-button-response 568 0 15 1 25 fegg barrel
11975 1422473 LF generalizationLP 11975_22175_33275_ dep 1480.87999998825 audio-button-response 542 1 14 1 75 caab jar
11975 1459109 LF generalizationLP 11975_22475_30475_ bim 2187.68000009004 audio-button-response 442 0 15 1 75 caab jar
11975 1431944 FL generalizationLP 11975_23075_31875_ tob 909.38000000082 audio-button-response 411 0 14 1 75 caab jar
11975 1420171 LF generalizationLP 11975_22875_30175_ dep 1627.08500000008 audio-button-response 542 1 14 1 75 caab jar
11975 1459048 FL generalizationLP 11975_22475_33175_ tob 447 audio-button-response 431 0 15 1 75 caab jar
11975 1431968 LF generalizationLP 11975_20175_30175_ dep 1388.59499996761 audio-button-response 454 1 14 1 75 caab jar
11975 1432052 FL generalizationLP 11975_20275_30975_ dep 1499.99499996193 audio-button-response 531 1 14 1 75 caab jar
11975 1422466 FL generalizationLP 11975_20175_33475_ bim 675.400000007357 audio-button-response 537 0 14 1 75 caab jar
11975 1414957 FL generalizationLP 11975_20375_31475_ dep 2282.7099999995 audio-button-response 410 1 14 1 75 caab jar
11975 1431989 LF generalizationLP 11975_22875_31075_ dep 1537.70500002429 audio-button-response 452 1 14 1 75 caab jar
11975 1431992 FL generalizationLP 11975_21675_33075_ dep 836 audio-button-response 437 1 14 1 75 caab jar
11975 1431958 FL generalizationLP 11975_22375_32375_ dep 1630.16500000004 audio-button-response 437 1 14 1 75 caab jar
11975 1459001 FL generalizationLP 11975_20475_33275_ bim 2628.38500000362 audio-button-response 437 0 15 1 75 caab jar
11975 1431984 FL generalizationLP 11975_22975_31775_ dep 1609.48499990627 audio-button-response 557 1 14 1 75 caab jar
11975 1431999 LF generalizationLP 11975_21975_32275_ dep 1891.18999999482 audio-button-response 538 1 14 1 75 caab jar
11975 1422679 FL generalizationLP 11975_22875_32675_ dep 884.740000125021 audio-button-response 417 1 14 1 75 caab jar
12025 1459039 LF generalizationLP 12025_20325_30525_ bim 2912 audio-button-response 410 0 15 1 25 fege barrel
12025 1459078 LF generalizationLP 12025_21425_32125_ dep 1338.70999999996 audio-button-response 454 1 15 1 25 fege barrel
12025 1420580 FL generalizationLP 12025_20525_30925_ dep 1601.61000001244 audio-button-response 417 1 14 1 25 fege barrel
12025 1457883 LF generalizationLP 12025_20425_32125_ tob 2076.8800000078 audio-button-response 420 0 15 1 25 fege barrel
12025 1459043 LF generalizationLP 12025_21125_31825_ tob 946 audio-button-response 578 0 15 1 25 fege barrel
12025 1432011 FL generalizationLP 12025_20125_30725_ tob 759.059999603778 audio-button-response 541 0 14 1 25 fege barrel
12025 1422472 FL generalizationLP 12025_22025_31825_ tob 1716.3950000031 audio-button-response 417 0 14 1 25 fege barrel
12025 1431984 FL generalizationLP 12025_20325_30825_ dep 1569.83499974012 audio-button-response 537 1 14 1 25 fege barrel
12025 1431952 LF generalizationLP 12025_21325_31225_ tob 1727.68500000529 audio-button-response 570 0 14 1 25 fege barrel
12025 1422715 LF generalizationLP 12025_21825_30625_ dep 1853.96000003675 audio-button-response 566 1 14 1 25 fege barrel
12025 1422677 FL generalizationLP 12025_20725_30325_ bim 1496.09999998938 audio-button-response 413 0 14 1 25 fege barrel
12025 1432030 LF generalizationLP 12025_22525_32325_ tob 930.025000008754 audio-button-response 562 0 14 1 25 fege barrel
12025 1459052 FL generalizationLP 12025_21325_32025_ dep 1744.82500040904 audio-button-response 447 1 15 1 25 fege barrel
12025 1431954 LF generalizationLP 12025_20425_30225_ tob 791.550000023562 audio-button-response 552 0 14 1 25 fege barrel
12025 1414932 LF generalizationLP 12025_21425_31325_ dep 2136.30999997258 audio-button-response 425 1 14 1 25 fege barrel
12025 1422680 LF generalizationLP 12025_20925_31225_ tob 2234.04499999015 audio-button-response 440 0 14 1 25 fege barrel
12025 1431963 LF generalizationLP 12025_22525_31625_ dep 2072.52999999037 audio-button-response 538 1 14 1 25 fege barrel
12025 1422679 FL generalizationLP 12025_22025_32125_ dep 1489.06999989413 audio-button-response 413 1 14 1 25 fege barrel
12025 1431948 LF generalizationLP 12025_20325_31325_ dep 930 audio-button-response 576 1 14 1 25 fege barrel
12025 1420199 FL generalizationLP 12025_21425_32225_ tob 1848.75499998452 audio-button-response 533 0 14 1 25 fege barrel
12025 1422681 LF generalizationLP 12025_22425_31725_ tob 2308.00499999896 audio-button-response 572 0 14 1 25 fege barrel
12025 1459700 LF generalizationLP 12025_21125_30225_ dep 2440.73500001105 audio-button-response 550 1 15 1 25 fege barrel
12075 1459057 FL generalizationLP 12075_20375_31875_ dep 3096.58499999932 audio-button-response 435 1 15 1 75 ccaa jar
12075 1459039 LF generalizationLP 12075_21575_31775_ dep 1053 audio-button-response 442 1 15 1 75 ccaa jar
12075 1414957 FL generalizationLP 12075_21575_30175_ dep 1336.93999999377 audio-button-response 438 1 14 1 75 ccaa jar
12075 1432323 LF generalizationLP 12075_20475_32375_ dep 1402 audio-button-response 576 1 14 1 75 ccaa jar
12075 1431974 FL generalizationLP 12075_20575_31675_ dep 2330.38499997929 audio-button-response 561 1 14 1 75 ccaa jar
12075 1459043 LF generalizationLP 12075_23375_31775_ dep 1660 audio-button-response 576 1 15 1 75 ccaa jar
12075 1422675 FL generalizationLP 12075_20575_31775_ dep 1056.19500001194 audio-button-response 533 1 14 1 75 ccaa jar
12075 1431998 LF generalizationLP 12075_21675_32075_ dep 1099.91500000068 audio-button-response 448 1 14 1 75 ccaa jar
12075 1431968 LF generalizationLP 12075_21575_32975_ dep 2035.2450000355 audio-button-response 444 1 14 1 75 ccaa jar
12075 1420577 LF generalizationLP 12075_22375_31875_ dep 2143.63000000594 audio-button-response 556 1 14 1 75 ccaa jar
12075 1432003 LF generalizationLP 12075_22775_32875_ bim 1921 audio-button-response 418 0 14 1 75 ccaa jar
12075 1422463 FL generalizationLP 12075_21475_33375_ dep 1845.88499999885 audio-button-response 419 1 14 1 75 ccaa jar
12075 1459052 FL generalizationLP 12075_20175_32975_ dep 1302.82999994233 audio-button-response 419 1 15 1 75 ccaa jar
12075 1431961 FL generalizationLP 12075_22875_32475_ bim 1890.3949999949 audio-button-response 425 0 14 1 75 ccaa jar
12125 1431974 FL generalizationLP 12125_20425_31225_ tob 1211.17999998387 audio-button-response 533 0 14 1 25 egeg barrel
12125 1432323 LF generalizationLP 12125_22225_30225_ tob 884 audio-button-response 556 0 14 1 25 egeg barrel
12125 1459067 LF generalizationLP 12125_21825_31025_ tob 2445.58499986306 audio-button-response 442 0 15 1 25 egeg barrel
12125 1431972 FL generalizationLP 12125_21525_31725_ bim 672.575000033248 audio-button-response 541 0 14 1 25 egeg barrel
12125 1420199 FL generalizationLP 12125_22125_31325_ dep 1891.86000000336 audio-button-response 563 1 14 1 25 egeg barrel
12125 1431942 LF generalizationLP 12125_22425_31625_ dep 1417.5450000912 audio-button-response 550 1 14 1 25 egeg barrel
12125 1422473 LF generalizationLP 12125_22425_32325_ tob 1347.10500005167 audio-button-response 552 0 14 1 25 egeg barrel
12125 1459001 FL generalizationLP 12125_21825_30525_ tob 1412.7099999896 audio-button-response 447 0 15 1 25 egeg barrel
12125 1414945 FL generalizationLP 12125_21025_30725_ dep 2050.76000001281 audio-button-response 426 1 14 1 25 egeg barrel
12125 1459020 LF generalizationLP 12125_22125_31925_ bim 1373.10999999999 audio-button-response 564 0 15 1 25 egeg barrel
12125 1459702 FL generalizationLP 12125_20225_30725_ bim 1050 audio-button-response 435 0 15 1 25 egeg barrel
12125 1431981 LF generalizationLP 12125_21725_31025_ dep 1103.58499997528 audio-button-response 550 1 14 1 25 egeg barrel
12125 1431966 LF generalizationLP 12125_21525_30425_ tob 1807.80999999843 audio-button-response 532 0 14 1 25 egeg barrel
12125 1459064 FL generalizationLP 12125_21325_32425_ tob 1855.99999991246 audio-button-response 417 0 15 1 25 egeg barrel
12125 1459709 LF generalizationLP 12125_21025_30925_ tob 1060.76999986544 audio-button-response 546 0 15 1 25 egeg barrel
12125 1422470 LF generalizationLP 12125_22125_31325_ tob 1249.77500003297 audio-button-response 414 0 14 1 25 egeg barrel
12125 1431949 FL generalizationLP 12125_21125_31125_ dep 1738.69999998715 audio-button-response 445 1 14 1 25 egeg barrel
12125 1431984 FL generalizationLP 12125_21725_30525_ dep 1270.3300002031 audio-button-response 541 1 14 1 25 egeg barrel
12125 1459109 LF generalizationLP 12125_22525_31825_ dep 3447.80500000343 audio-button-response 450 1 15 1 25 egeg barrel
12175 1431948 LF generalizationLP 12175_20775_30975_ bim 1063 audio-button-response 560 0 14 1 75 bcaa jar
12175 1459706 FL generalizationLP 12175_22575_30175_ dep 1319.22999999369 audio-button-response 543 1 15 1 75 bcaa jar
12175 1422475 LF generalizationLP 12175_21875_31575_ bim 1698.89500003774 audio-button-response 534 0 14 1 75 bcaa jar
12175 1431970 LF generalizationLP 12175_22375_33175_ dep 707.179999968503 audio-button-response 452 1 14 1 75 bcaa jar
12175 1422470 LF generalizationLP 12175_22975_31475_ dep 1780.75000003446 audio-button-response 442 1 14 1 75 bcaa jar
12175 1459701 LF generalizationLP 12175_23375_31175_ dep 1125.43499999447 audio-button-response 418 1 15 1 75 bcaa jar
12175 1420163 FL generalizationLP 12175_20275_32275_ dep 648.31000000413 audio-button-response 561 1 14 1 75 bcaa jar
12175 1459703 FL generalizationLP 12175_21375_30975_ dep 1496.74500001129 audio-button-response 567 1 15 1 75 bcaa jar
12175 1420177 FL generalizationLP 12175_20675_31775_ dep 2206.86500001466 audio-button-response 535 1 14 1 75 bcaa jar
12175 1420199 FL generalizationLP 12175_20375_30775_ dep 2006.24999997672 audio-button-response 555 1 14 1 75 bcaa jar
12175 1431972 FL generalizationLP 12175_21575_30575_ tob 864.05500001274 audio-button-response 557 0 14 1 75 bcaa jar
12175 1431969 FL generalizationLP 12175_20575_32775_ bim 891 audio-button-response 555 0 14 1 75 bcaa jar
12175 1459702 FL generalizationLP 12175_21075_33075_ tob 1708 audio-button-response 409 0 15 1 75 bcaa jar
12175 1459696 FL generalizationLP 12175_22575_32575_ dep 952.580000011949 audio-button-response 434 1 15 1 75 bcaa jar
12225 1431946 FL generalizationLP 12225_21325_31325_ tob 1741.16499999946 audio-button-response 431 0 14 1 25 egfg barrel
12225 1422676 LF generalizationLP 12225_21325_32325_ dep 1879.72500000068 audio-button-response 454 1 14 1 25 egfg barrel
12225 1431969 FL generalizationLP 12225_20625_32525_ tob 912 audio-button-response 539 0 14 1 25 egfg barrel
12225 1459002 FL generalizationLP 12225_20925_30925_ tob 1810.47499994747 audio-button-response 537 0 15 1 25 egfg barrel
12225 1431961 FL generalizationLP 12225_22425_31225_ tob 2062.98999999126 audio-button-response 407 0 14 1 25 egfg barrel
12225 1422465 FL generalizationLP 12225_22525_32125_ tob 1676.17500002962 audio-button-response 429 0 14 1 25 egfg barrel
12225 1420165 FL generalizationLP 12225_20525_31725_ tob 1193.13000002876 audio-button-response 425 0 14 1 25 egfg barrel
12225 1422477 FL generalizationLP 12225_22225_32125_ bim 1850.26999999536 audio-button-response 445 0 14 1 25 egfg barrel
12225 1431949 FL generalizationLP 12225_21625_31325_ dep 1592.70000003744 audio-button-response 425 1 14 1 25 egfg barrel
12225 1432011 FL generalizationLP 12225_21925_32225_ bim 681.969999801368 audio-button-response 565 0 14 1 25 egfg barrel
12225 1422679 FL generalizationLP 12225_22525_31725_ dep 1781.04500006884 audio-button-response 415 1 14 1 25 egfg barrel
12225 1431959 LF generalizationLP 12225_21525_32125_ tob 1923.38500003098 audio-button-response 550 0 14 1 25 egfg barrel
12225 1431944 FL generalizationLP 12225_22225_31025_ tob 933.710000000894 audio-button-response 449 0 14 1 25 egfg barrel
12225 1415040 FL generalizationLP 12225_21925_30825_ dep 1398 audio-button-response 430 1 14 1 25 egfg barrel
12225 1432003 LF generalizationLP 12225_20425_30425_ dep 1531 audio-button-response 452 1 14 1 25 egfg barrel
12225 1459706 FL generalizationLP 12225_22425_31125_ dep 3010.99499998963 audio-button-response 531 1 15 1 25 egfg barrel
12225 1459046 LF generalizationLP 12225_22125_31625_ dep 1498 audio-button-response 550 1 15 1 25 egfg barrel
12225 1459003 FL generalizationLP 12225_21825_31125_ bim 2795.51999992691 audio-button-response 529 0 15 1 25 egfg barrel
12225 1458998 LF generalizationLP 12225_21425_32125_ tob 1119.90500002867 audio-button-response 578 0 15 1 25 egfg barrel
12225 1431966 LF generalizationLP 12225_21925_30725_ dep 1321.13499999105 audio-button-response 546 1 14 1 25 egfg barrel
12225 1459703 FL generalizationLP 12225_20325_31325_ tob 2393.619999988 audio-button-response 543 0 15 1 25 egfg barrel
12275 1459701 LF generalizationLP 12275_23575_32975_ dep 1270.98499998101 audio-button-response 422 1 15 1 75 bcca jar
12275 1422470 LF generalizationLP 12275_21375_30675_ dep 1207.44999998715 audio-button-response 448 1 14 1 75 bcca jar
12275 1459702 FL generalizationLP 12275_22575_30175_ tob 1252 audio-button-response 433 0 15 1 75 bcca jar
12275 1459699 LF generalizationLP 12275_21175_32375_ dep 1595 audio-button-response 444 1 15 1 75 bcca jar
12275 1458996 LF generalizationLP 12275_20275_30975_ dep 1848.18499999889 audio-button-response 534 1 15 1 75 bcca jar
12275 1422475 LF generalizationLP 12275_23175_32875_ bim 927.049999998417 audio-button-response 546 0 14 1 75 bcca jar
12275 1459064 FL generalizationLP 12275_20975_31675_ tob 1475.00000009313 audio-button-response 423 0 15 1 75 bcca jar
12275 1432075 FL generalizationLP 12275_23175_32675_ dep 1243.96000010893 audio-button-response 551 1 14 1 75 bcca jar
12325 1459001 FL generalizationLP 12325_20825_32425_ tob 1361.99500001385 audio-button-response 427 0 15 1 25 gfff barrel
12325 1459702 FL generalizationLP 12325_21625_31925_ tob 1858 audio-button-response 449 0 15 1 25 gfff barrel
12325 1422470 LF generalizationLP 12325_20825_31825_ tob 1402.26000000257 audio-button-response 432 0 14 1 25 gfff barrel
12325 1459703 FL generalizationLP 12325_22325_31625_ tob 2245.36499998067 audio-button-response 535 0 15 1 25 gfff barrel
12325 1459024 FL generalizationLP 12325_22525_31125_ tob 2406.91000001971 audio-button-response 435 0 15 1 25 gfff barrel
12325 1422689 FL generalizationLP 12325_20325_30425_ bim 1761.78000000073 audio-button-response 551 0 14 1 25 gfff barrel
12325 1431965 FL generalizationLP 12325_20225_31525_ tob 1711 audio-button-response 407 0 14 1 25 gfff barrel
12325 1432030 LF generalizationLP 12325_21425_30325_ tob 1858.45499999414 audio-button-response 546 0 14 1 25 gfff barrel
12325 1422681 LF generalizationLP 12325_21225_30825_ tob 962.84999999986 audio-button-response 546 0 14 1 25 gfff barrel
12325 1420577 LF generalizationLP 12325_22225_30825_ bim 1320.550000004 audio-button-response 548 0 14 1 25 gfff barrel
12325 1414945 FL generalizationLP 12325_20825_30425_ dep 1826.57499983907 audio-button-response 422 1 14 1 25 gfff barrel
12375 1459052 FL generalizationLP 12375_20575_32275_ dep 1836.13499999046 audio-button-response 417 1 15 1 75 bbbc jar
12375 1459025 LF generalizationLP 12375_20575_30575_ tob 1303.99499996565 audio-button-response 566 0 15 1 75 bbbc jar
12375 1431972 FL generalizationLP 12375_22375_30675_ bim 849.020000023302 audio-button-response 539 0 14 1 75 bbbc jar
12375 1459709 LF generalizationLP 12375_22575_30975_ dep 3125.99999993108 audio-button-response 578 1 15 1 75 bbbc jar
12375 1420185 LF generalizationLP 12375_21775_32975_ dep 1553.83500014432 audio-button-response 428 1 14 1 75 bbbc jar
12375 1432003 LF generalizationLP 12375_22075_32575_ dep 1574 audio-button-response 454 1 14 1 75 bbbc jar
12375 1431997 FL generalizationLP 12375_22675_30975_ dep 1686.41499988735 audio-button-response 571 1 14 1 75 bbbc jar
12375 1420171 LF generalizationLP 12375_20975_31475_ dep 1260.1699999941 audio-button-response 562 1 14 1 75 bbbc jar
12375 1414932 LF generalizationLP 12375_20175_31975_ bim 1029.9600000144 audio-button-response 453 0 14 1 75 bbbc jar
12375 1459047 FL generalizationLP 12375_20475_32675_ dep 1687.48499994399 audio-button-response 449 1 15 1 75 bbbc jar
12375 1459708 FL generalizationLP 12375_20475_33575_ dep 1140.93000002322 audio-button-response 555 1 15 1 75 bbbc jar
12375 1431984 FL generalizationLP 12375_21275_31875_ dep 1540.49000004306 audio-button-response 553 1 14 1 75 bbbc jar
12375 1431999 LF generalizationLP 12375_20275_32575_ dep 2046.2150000094 audio-button-response 558 1 14 1 75 bbbc jar
12375 1420180 FL generalizationLP 12375_23275_31175_ dep 1171.83499999996 audio-button-response 569 1 14 1 75 bbbc jar
12375 1431959 LF generalizationLP 12375_21075_31375_ dep 1724.65499996906 audio-button-response 564 1 14 1 75 bbbc jar
12375 1459078 LF generalizationLP 12375_20475_31975_ dep 2027.90000000002 audio-button-response 444 1 15 1 75 bbbc jar
12375 1414945 FL generalizationLP 12375_21575_30575_ dep 1213.85499974713 audio-button-response 450 1 14 1 75 bbbc jar
12375 1431952 LF generalizationLP 12375_21975_30375_ tob 1233.09000000881 audio-button-response 566 0 14 1 75 bbbc jar
12425 1422675 FL generalizationLP 12425_20225_30625_ dep 1607.30499998317 audio-button-response 561 1 14 1 25 effe barrel
12425 1431953 FL generalizationLP 12425_22025_31125_ bim 2413.37500000373 audio-button-response 533 0 14 1 25 effe barrel
12425 1431960 LF generalizationLP 12425_20425_32325_ tob 1543.20499999449 audio-button-response 456 0 14 1 25 effe barrel
12425 1459029 FL generalizationLP 12425_21625_31825_ dep 985.02500000177 audio-button-response 417 1 15 1 25 effe barrel
12425 1459020 LF generalizationLP 12425_21725_32225_ bim 855.12000000017 audio-button-response 548 0 15 1 25 effe barrel
12425 1422679 FL generalizationLP 12425_21425_30725_ tob 1174.05000003055 audio-button-response 441 0 14 1 25 effe barrel
12425 1431997 FL generalizationLP 12425_21925_32225_ tob 1786.68999997899 audio-button-response 561 0 14 1 25 effe barrel
12425 1459007 FL generalizationLP 12425_22525_30225_ tob 1397.43999997154 audio-button-response 425 0 15 1 25 effe barrel
12425 1414937 FL generalizationLP 12425_20225_32225_ dep 1548.01500000758 audio-button-response 408 1 14 1 25 effe barrel
12425 1432030 LF generalizationLP 12425_20825_31125_ tob 2403.55000000272 audio-button-response 532 0 14 1 25 effe barrel
12425 1431969 FL generalizationLP 12425_20825_30225_ tob 777 audio-button-response 549 0 14 1 25 effe barrel
12425 1431992 FL generalizationLP 12425_22125_30625_ dep 1219 audio-button-response 415 1 14 1 25 effe barrel
12425 1432003 LF generalizationLP 12425_21625_31225_ dep 1546 audio-button-response 412 1 14 1 25 effe barrel
12425 1459709 LF generalizationLP 12425_22025_31225_ tob 1636.50000002235 audio-button-response 544 0 15 1 25 effe barrel
12425 1415040 FL generalizationLP 12425_20125_30625_ dep 2078 audio-button-response 426 1 14 1 25 effe barrel
12425 1431999 LF generalizationLP 12425_21025_30225_ tob 2241.75499999546 audio-button-response 546 0 14 1 25 effe barrel
12425 1459706 FL generalizationLP 12425_20425_32125_ bim 2983.49500002223 audio-button-response 539 0 15 1 25 effe barrel
12425 1459039 LF generalizationLP 12425_21425_31325_ dep 1553 audio-button-response 422 1 15 1 25 effe barrel
12425 1422466 FL generalizationLP 12425_21825_31125_ tob 408.685000031255 audio-button-response 559 0 14 1 25 effe barrel
12425 1459064 FL generalizationLP 12425_21725_32225_ dep 1104.00000005029 audio-button-response 435 1 15 1 25 effe barrel
12425 1432323 LF generalizationLP 12425_20625_30825_ tob 1145 audio-button-response 568 0 14 1 25 effe barrel
12475 1459699 LF generalizationLP 12475_23475_33575_ dep 2452 audio-button-response 414 1 15 1 75 cabc jar
12475 1420573 LF generalizationLP 12475_20475_31475_ bim 743 audio-button-response 440 0 14 1 75 cabc jar
12475 1459015 LF generalizationLP 12475_22975_32975_ tob 1424.02500001481 audio-button-response 432 0 15 1 75 cabc jar
12475 1431997 FL generalizationLP 12475_20475_32275_ dep 1504.47000004351 audio-button-response 533 1 14 1 75 cabc jar
12475 1459052 FL generalizationLP 12475_22475_30675_ bim 1063.15999990329 audio-button-response 437 0 15 1 75 cabc jar
12475 1459057 FL generalizationLP 12475_22075_30375_ dep 1833.2550000014 audio-button-response 421 1 15 1 75 cabc jar
12475 1431956 LF generalizationLP 12475_20775_33375_ dep 2269.26000000094 audio-button-response 420 1 14 1 75 cabc jar
12475 1432301 LF generalizationLP 12475_23075_33275_ dep 1583.16000000923 audio-button-response 542 1 14 1 75 cabc jar
12475 1414937 FL generalizationLP 12475_21675_33375_ dep 1194.4749999966 audio-button-response 442 1 14 1 75 cabc jar
12475 1422476 LF generalizationLP 12475_22775_32775_ dep 1006.8900000042 audio-button-response 550 1 14 1 75 cabc jar
12475 1422716 FL generalizationLP 12475_23575_31675_ dep 1279.23500002362 audio-button-response 553 1 14 1 75 cabc jar
12475 1431998 LF generalizationLP 12475_20375_32675_ dep 1319.52499999898 audio-button-response 424 1 14 1 75 cabc jar
12525 1431958 FL generalizationLP 12525_20125_32125_ dep 1904.35999999999 audio-button-response 447 1 14 1 25 effg barrel
12525 1459052 FL generalizationLP 12525_21025_31225_ dep 1454.93999961764 audio-button-response 409 1 15 1 25 effg barrel
12525 1431972 FL generalizationLP 12525_20225_32325_ bim 1370.67000003299 audio-button-response 551 0 14 1 25 effg barrel
12525 1459009 FL generalizationLP 12525_20325_32125_ tob 1520.18500000122 audio-button-response 565 0 15 1 25 effg barrel
12525 1422677 FL generalizationLP 12525_20125_31625_ tob 1310.88999999338 audio-button-response 441 0 14 1 25 effg barrel
12525 1422676 LF generalizationLP 12525_20325_32425_ dep 1134.54499999899 audio-button-response 436 1 14 1 25 effg barrel
12525 1420622 FL generalizationLP 12525_21425_30125_ dep 1799.42500032485 audio-button-response 569 1 14 1 25 effg barrel
12525 1414932 LF generalizationLP 12525_20225_30725_ dep 2219.50499998638 audio-button-response 447 1 14 1 25 effg barrel
12525 1420204 LF generalizationLP 12525_20225_30925_ tob 1923.35500000021 audio-button-response 560 0 14 1 25 effg barrel
12525 1431981 LF generalizationLP 12525_22525_31925_ dep 1225.97500000848 audio-button-response 544 1 14 1 25 effg barrel
12525 1422465 FL generalizationLP 12525_21425_30525_ tob 989.88000000827 audio-button-response 449 0 14 1 25 effg barrel
12525 1422680 LF generalizationLP 12525_22425_32525_ dep 1363.40999999084 audio-button-response 434 1 14 1 25 effg barrel
12525 1420165 FL generalizationLP 12525_22525_31025_ tob 1958.56499997899 audio-button-response 423 0 14 1 25 effg barrel
12525 1420171 LF generalizationLP 12525_22525_32225_ tob 1330.35999999993 audio-button-response 538 0 14 1 25 effg barrel
12525 1432052 FL generalizationLP 12525_22525_30925_ tob 390.504999959376 audio-button-response 565 0 14 1 25 effg barrel
12525 1459701 LF generalizationLP 12525_21825_31625_ bim 1618.32000000868 audio-button-response 456 0 15 1 25 effg barrel
12575 1459701 LF generalizationLP 12575_21675_32275_ dep 930.040000006557 audio-button-response 424 1 15 1 75 cacb jar
12575 1431968 LF generalizationLP 12575_21975_32875_ dep 2170.11499998625 audio-button-response 422 1 14 1 75 cacb jar
12575 1459706 FL generalizationLP 12575_21675_33475_ bim 1483.7300000072 audio-button-response 559 0 15 1 75 cacb jar
12575 1459052 FL generalizationLP 12575_21575_30775_ bim 1457.8199996613 audio-button-response 453 0 15 1 75 cacb jar
12575 1459029 FL generalizationLP 12575_23175_32975_ dep 1794.82999999891 audio-button-response 431 1 15 1 75 cacb jar
12575 1431949 FL generalizationLP 12575_22175_33075_ dep 1488.05499996524 audio-button-response 427 1 14 1 75 cacb jar
12575 1432301 LF generalizationLP 12575_22175_30875_ dep 1241.50500001269 audio-button-response 546 1 14 1 75 cacb jar
12575 1431952 LF generalizationLP 12575_22475_31175_ dep 1484.58999999275 audio-button-response 546 1 14 1 75 cacb jar
12575 1459047 FL generalizationLP 12575_21675_31175_ dep 1345.02000000793 audio-button-response 429 1 15 1 75 cacb jar
12575 1459013 FL generalizationLP 12575_21075_32075_ bim 2364 audio-button-response 549 0 15 1 75 cacb jar
12575 1422477 FL generalizationLP 12575_21775_30275_ dep 1703.39499998954 audio-button-response 419 1 14 1 75 cacb jar
12575 1459064 FL generalizationLP 12575_23275_32575_ tob 1059.0000001248 audio-button-response 431 0 15 1 75 cacb jar
12575 1459024 FL generalizationLP 12575_21075_33475_ dep 1880.94999999157 audio-button-response 415 1 15 1 75 cacb jar
12575 1459067 LF generalizationLP 12575_22975_33075_ dep 1413.97999995388 audio-button-response 420 1 15 1 75 cacb jar
12575 1431959 LF generalizationLP 12575_20475_33175_ dep 1406.08499996597 audio-button-response 536 1 14 1 75 cacb jar
12675 1459020 LF generalizationLP 12675_20975_31575_ tob 1947.20000000007 audio-button-response 534 0 15 1 75 ccab jar
12675 1414933 LF generalizationLP 12675_23375_31375_ dep 1537 audio-button-response 441 1 14 1 75 ccab jar
12675 1459700 LF generalizationLP 12675_21075_30175_ dep 1901.90500000608 audio-button-response 546 1 15 1 75 ccab jar
12675 1431969 FL generalizationLP 12675_22575_33375_ dep 1337 audio-button-response 531 1 14 1 75 ccab jar
12675 1422465 FL generalizationLP 12675_23475_32875_ tob 1550.78000004869 audio-button-response 423 0 14 1 75 ccab jar
12675 1414957 FL generalizationLP 12675_22475_32875_ dep 1882.59500000277 audio-button-response 414 1 14 1 75 ccab jar
12675 1422676 LF generalizationLP 12675_22175_32875_ dep 1797.30000000016 audio-button-response 428 1 14 1 75 ccab jar
12675 1432052 FL generalizationLP 12675_21375_32875_ dep 1143.48500000779 audio-button-response 543 1 14 1 75 ccab jar
12675 1420580 FL generalizationLP 12675_21975_31375_ dep 1338.20999995805 audio-button-response 435 1 14 1 75 ccab jar
12675 1420573 LF generalizationLP 12675_23475_30675_ bim 844 audio-button-response 412 0 14 1 75 ccab jar
12675 1432030 LF generalizationLP 12675_21075_32775_ dep 1823.1700000033 audio-button-response 556 1 14 1 75 ccab jar
12675 1431944 FL generalizationLP 12675_22375_32775_ dep 1604.64499999955 audio-button-response 417 1 14 1 75 ccab jar
12675 1422467 LF generalizationLP 12675_22075_32675_ dep 1230.30499997549 audio-button-response 548 1 14 1 75 ccab jar
12675 1458996 LF generalizationLP 12675_21075_33475_ dep 1968.05999999924 audio-button-response 570 1 15 1 75 ccab jar
12675 1432323 LF generalizationLP 12675_20975_31775_ dep 1762 audio-button-response 572 1 14 1 75 ccab jar
12675 1422716 FL generalizationLP 12675_23275_33175_ dep 1455.96000016667 audio-button-response 573 1 14 1 75 ccab jar
12775 1431958 FL generalizationLP 12775_23475_31175_ dep 2157.61500000011 audio-button-response 427 1 14 1 75 bbba jar
12775 1422472 FL generalizationLP 12775_22175_31575_ dep 2237.20999999932 audio-button-response 425 1 14 1 75 bbba jar
12775 1422715 LF generalizationLP 12775_23275_33475_ dep 1565.37999998545 audio-button-response 572 1 14 1 75 bbba jar
12775 1458998 LF generalizationLP 12775_23175_33275_ dep 1195.73000003584 audio-button-response 546 1 15 1 75 bbba jar
12775 1422676 LF generalizationLP 12775_22575_31875_ bim 1428.92000000033 audio-button-response 424 0 14 1 75 bbba jar
12775 1432052 FL generalizationLP 12775_22075_30275_ tob 1390.21499996306 audio-button-response 555 0 14 1 75 bbba jar
12775 1459009 FL generalizationLP 12775_20675_32675_ dep 1116.88499999943 audio-button-response 569 1 15 1 75 bbba jar
12775 1422465 FL generalizationLP 12775_21375_32075_ dep 2053.36499994155 audio-button-response 415 1 14 1 75 bbba jar
12775 1459025 LF generalizationLP 12775_20975_31475_ bim 1509.27000003867 audio-button-response 542 0 15 1 75 bbba jar
12775 1431952 LF generalizationLP 12775_20175_30775_ tob 2314.56499999331 audio-button-response 550 0 14 1 75 bbba jar
12875 1431992 FL generalizationLP 12875_22475_33475_ dep 810 audio-button-response 443 1 14 1 75 baba jar
12875 1422675 FL generalizationLP 12875_23375_31275_ dep 1202.92999999947 audio-button-response 559 1 14 1 75 baba jar
12875 1459703 FL generalizationLP 12875_22275_30775_ bim 1417.97499998938 audio-button-response 539 0 15 1 75 baba jar
12875 1422678 LF generalizationLP 12875_22775_30275_ dep 1517.73999999935 audio-button-response 540 1 14 1 75 baba jar
12875 1431970 LF generalizationLP 12875_23475_32475_ bim 1684.51499997173 audio-button-response 410 0 14 1 75 baba jar
12875 1431998 LF generalizationLP 12875_21075_30975_ dep 1345.4700000002 audio-button-response 440 1 14 1 75 baba jar
12875 1422715 LF generalizationLP 12875_20575_31375_ dep 1874.16000000667 audio-button-response 560 1 14 1 75 baba jar
12875 1431981 LF generalizationLP 12875_21475_31975_ tob 1154.91499996278 audio-button-response 558 0 14 1 75 baba jar
12875 1432030 LF generalizationLP 12875_23175_31275_ dep 1014.17500000389 audio-button-response 564 1 14 1 75 baba jar
12875 1431984 FL generalizationLP 12875_21375_30175_ dep 1468.78500003368 audio-button-response 565 1 14 1 75 baba jar
12875 1459024 FL generalizationLP 12875_20875_31175_ bim 1574.99000002281 audio-button-response 439 0 15 1 75 baba jar
12875 1459003 FL generalizationLP 12875_22575_33575_ dep 2758.33999994211 audio-button-response 551 1 15 1 75 baba jar
12875 1458998 LF generalizationLP 12875_23275_30575_ dep 740.449999982957 audio-button-response 548 1 15 1 75 baba jar
12875 1422470 LF generalizationLP 12875_20775_32575_ dep 1340.61999997357 audio-button-response 446 1 14 1 75 baba jar
12875 1431948 LF generalizationLP 12875_22175_33175_ bim 1598 audio-button-response 540 0 14 1 75 baba jar
12875 1431963 LF generalizationLP 12875_22675_31875_ bim 1723.9350000018 audio-button-response 568 0 14 1 75 baba jar
12975 1432007 LF generalizationLP 12975_22975_33075_ tob 1550.98500000173 audio-button-response 572 0 14 1 75 bbbd jar
12975 1420204 LF generalizationLP 12975_20175_32975_ dep 1441.84499999991 audio-button-response 534 1 14 1 75 bbbd jar
12975 1422472 FL generalizationLP 12975_23075_31675_ dep 1351.58000000229 audio-button-response 421 1 14 1 75 bbbd jar
12975 1431998 LF generalizationLP 12975_22875_31375_ dep 1328.81999999884 audio-button-response 454 1 14 1 75 bbbd jar
12975 1459047 FL generalizationLP 12975_22775_33275_ dep 1866.13000003854 audio-button-response 435 1 15 1 75 bbbd jar
12975 1459039 LF generalizationLP 12975_22175_33475_ dep 1455 audio-button-response 416 1 15 1 75 bbbd jar
12975 1459109 LF generalizationLP 12975_20475_32875_ dep 3242.34499991871 audio-button-response 412 1 15 1 75 bbbd jar
12975 1431942 LF generalizationLP 12975_21275_33175_ dep 1050.38499995135 audio-button-response 536 1 14 1 75 bbbd jar
12975 1422678 LF generalizationLP 12975_20975_31575_ dep 687.275000000198 audio-button-response 544 1 14 1 75 bbbd jar
12975 1458992 FL generalizationLP 12975_21975_33075_ dep 1599.79999996722 audio-button-response 415 1 15 1 75 bbbd jar
12975 1459018 FL generalizationLP 12975_21875_31775_ dep 1905.52999998908 audio-button-response 417 1 15 1 75 bbbd jar
12975 1420177 FL generalizationLP 12975_21975_31675_ dep 1679.72499999451 audio-button-response 575 1 14 1 75 bbbd jar
12975 1432003 LF generalizationLP 12975_22275_32375_ dep 1363 audio-button-response 424 1 14 1 75 bbbd jar
12975 1422473 LF generalizationLP 12975_21575_32175_ dep 1322.21499999287 audio-button-response 564 1 14 1 75 bbbd jar
12975 1420163 FL generalizationLP 12975_22275_32975_ dep 1029.38999999606 audio-button-response 559 1 14 1 75 bbbd jar
12975 1422676 LF generalizationLP 12975_21475_31675_ bim 2338.23999999912 audio-button-response 432 0 14 1 75 bbbd jar
13075 1459009 FL generalizationLP 13075_21175_30975_ dep 1396.63999999897 audio-button-response 553 1 15 1 75 babb jar
13075 1459052 FL generalizationLP 13075_21075_32775_ dep 1538.73499995098 audio-button-response 449 1 15 1 75 babb jar
13075 1459696 FL generalizationLP 13075_20175_32375_ bim 608.99999999674 audio-button-response 410 0 15 1 75 babb jar
13075 1459078 LF generalizationLP 13075_23075_33475_ dep 1992.58000000007 audio-button-response 452 1 15 1 75 babb jar
13075 1422473 LF generalizationLP 13075_22275_31675_ bim 2314.70500002615 audio-button-response 578 0 14 1 75 babb jar
13075 1420580 FL generalizationLP 13075_20975_32675_ dep 1363.86500002118 audio-button-response 427 1 14 1 75 babb jar
13075 1422715 LF generalizationLP 13075_23575_32075_ dep 1293.81499998271 audio-button-response 534 1 14 1 75 babb jar
13075 1420199 FL generalizationLP 13075_22275_33475_ dep 2304.70500001684 audio-button-response 543 1 14 1 75 babb jar
13075 1432323 LF generalizationLP 13075_22475_30875_ dep 941 audio-button-response 560 1 14 1 75 babb jar
13075 1432007 LF generalizationLP 13075_22475_30475_ dep 1326.39000000199 audio-button-response 560 1 14 1 75 babb jar
13075 1420180 FL generalizationLP 13075_23375_31575_ dep 1162.33000000002 audio-button-response 555 1 14 1 75 babb jar
13075 1422467 LF generalizationLP 13075_21475_30575_ dep 1324.729999993 audio-button-response 536 1 14 1 75 babb jar
13075 1459001 FL generalizationLP 13075_22475_30975_ bim 1719.74499999487 audio-button-response 445 0 15 1 75 babb jar
13175 1431997 FL generalizationLP 13175_22275_30875_ dep 1999.05000021681 audio-button-response 557 1 14 1 75 accb jar
13175 1431970 LF generalizationLP 13175_23275_31975_ tob 827.419999986887 audio-button-response 430 0 14 1 75 accb jar
13175 1431969 FL generalizationLP 13175_22275_30175_ bim 1120 audio-button-response 547 0 14 1 75 accb jar
13175 1431953 FL generalizationLP 13175_20475_31575_ dep 1791.54499992728 audio-button-response 529 1 14 1 75 accb jar
13175 1431949 FL generalizationLP 13175_23575_31475_ dep 1849.24499999033 audio-button-response 431 1 14 1 75 accb jar
13175 1459057 FL generalizationLP 13175_21875_32975_ dep 2571.27000000025 audio-button-response 441 1 15 1 75 accb jar
13175 1422681 LF generalizationLP 13175_20875_33375_ dep 1507.30000000109 audio-button-response 542 1 14 1 75 accb jar
13175 1458997 LF generalizationLP 13175_21475_31075_ tob 2200.9900000412 audio-button-response 450 0 15 1 75 accb jar
13175 1458992 FL generalizationLP 13175_22275_33275_ dep 1714.02500011027 audio-button-response 447 1 15 1 75 accb jar
13175 1459767 FL generalizationLP 13175_21075_32975_ dep 933.405000003288 audio-button-response 441 1 15 1 75 accb jar
13275 1432009 FL generalizationLP 13275_22175_32175_ dep 1813 audio-button-response 453 1 14 1 75 aacc jar
13275 1431979 FL generalizationLP 13275_20675_30475_ dep 1217 audio-button-response 551 1 14 1 75 aacc jar
13275 1420165 FL generalizationLP 13275_22675_33475_ dep 1551.78999999771 audio-button-response 415 1 14 1 75 aacc jar
13275 1422472 FL generalizationLP 13275_20575_32975_ dep 1693.22000000102 audio-button-response 451 1 14 1 75 aacc jar
13275 1459699 LF generalizationLP 13275_20675_32075_ dep 1345 audio-button-response 410 1 15 1 75 aacc jar
13275 1432007 LF generalizationLP 13275_21975_30775_ tob 824.805000000168 audio-button-response 570 0 14 1 75 aacc jar
13275 1431942 LF generalizationLP 13275_21175_31275_ dep 1930.12000015005 audio-button-response 562 1 14 1 75 aacc jar
13275 1432323 LF generalizationLP 13275_22275_31275_ dep 1186 audio-button-response 558 1 14 1 75 aacc jar
13275 1431948 LF generalizationLP 13275_20375_30275_ bim 1424 audio-button-response 568 0 14 1 75 aacc jar
13275 1459025 LF generalizationLP 13275_22975_32375_ tob 1156.81500011124 audio-button-response 576 0 15 1 75 aacc jar
13275 1459709 LF generalizationLP 13275_22775_32075_ tob 2127.68999999389 audio-button-response 576 0 15 1 75 aacc jar
13275 1431998 LF generalizationLP 13275_21875_31475_ tob 1401.22999999952 audio-button-response 412 0 14 1 75 aacc jar
13275 1431957 FL generalizationLP 13275_20575_30475_ dep 1376.39999997918 audio-button-response 561 1 14 1 75 aacc jar
13275 1459009 FL generalizationLP 13275_20775_30875_ tob 1637.67999999982 audio-button-response 551 0 15 1 75 aacc jar
13275 1459697 FL generalizationLP 13275_23475_32675_ bim 1255.10500000016 audio-button-response 417 0 15 1 75 aacc jar
13275 1431969 FL generalizationLP 13275_21775_32175_ dep 1680 audio-button-response 537 1 14 1 75 aacc jar
13275 1459043 LF generalizationLP 13275_22875_30975_ bim 1416 audio-button-response 542 0 15 1 75 aacc jar
13275 1459015 LF generalizationLP 13275_22275_33275_ tob 1982.53000003751 audio-button-response 410 0 15 1 75 aacc jar
13275 1431965 FL generalizationLP 13275_20275_31675_ dep 1458 audio-button-response 415 1 14 1 75 aacc jar
13375 1431952 LF generalizationLP 13375_22075_33375_ tob 1245.68000000727 audio-button-response 556 0 14 1 75 cbcc jar
13375 1459700 LF generalizationLP 13375_23475_30975_ dep 1230.02499999711 audio-button-response 534 1 15 1 75 cbcc jar
13375 1420573 LF generalizationLP 13375_21675_33575_ dep 868 audio-button-response 418 1 14 1 75 cbcc jar
13375 1420577 LF generalizationLP 13375_22975_31275_ dep 1896.69500000309 audio-button-response 560 1 14 1 75 cbcc jar
13375 1432323 LF generalizationLP 13375_22675_31075_ tob 1384 audio-button-response 538 0 14 1 75 cbcc jar
13375 1422677 FL generalizationLP 13375_23175_31475_ bim 2231.96999999345 audio-button-response 445 0 14 1 75 cbcc jar
13375 1459767 FL generalizationLP 13375_22175_33175_ dep 2385.75499999942 audio-button-response 453 1 15 1 75 cbcc jar
13375 1415040 FL generalizationLP 13375_20275_30275_ dep 1433 audio-button-response 442 1 14 1 75 cbcc jar
13375 1459003 FL generalizationLP 13375_20375_32675_ dep 1894.01000004727 audio-button-response 549 1 15 1 75 cbcc jar
13375 1459020 LF generalizationLP 13375_22675_32875_ dep 1813.97999999986 audio-button-response 562 1 15 1 75 cbcc jar
13475 1431949 FL generalizationLP 13475_20875_31175_ dep 1370.10000000009 audio-button-response 451 1 14 1 75 bbca jar
13475 1431974 FL generalizationLP 13475_22775_31875_ dep 1555.59000000358 audio-button-response 543 1 14 1 75 bbca jar
13475 1420180 FL generalizationLP 13475_23475_30475_ dep 1235.73499999993 audio-button-response 543 1 14 1 75 bbca jar
13475 1431978 FL generalizationLP 13475_23175_32575_ bim 1608.34500000055 audio-button-response 415 0 14 1 75 bbca jar
