subjID learning task fribbleID label rt resp trialType trialIndex acc Experiment.Version category frequency
1414937 FL learningBlock1 20375 FLbim NA NA audio-keyboard-response 22 NA 14 2 75
1414937 FL learningBlock1 31075 FLtob NA NA audio-keyboard-response 25 NA 14 3 75
1414937 FL learningBlock1 32775 FLtob NA NA audio-keyboard-response 28 NA 14 3 75
1414937 FL learningBlock1 32875 FLtob NA NA audio-keyboard-response 31 NA 14 3 75
1414937 FL learningBlock1 22025 FLbim NA NA audio-keyboard-response 34 NA 14 2 25
1414937 FL learningBlock1 10425 FLdep NA NA audio-keyboard-response 37 NA 14 1 25
1414937 FL learningBlock1 21575 FLbim NA NA audio-keyboard-response 40 NA 14 2 75
1414937 FL learningBlock1 21825 FLbim NA NA audio-keyboard-response 43 NA 14 2 25
1414937 FL learningBlock1 31575 FLtob NA NA audio-keyboard-response 46 NA 14 3 75
1414937 FL learningBlock1 22675 FLbim NA NA audio-keyboard-response 49 NA 14 2 75
1414937 FL learningBlock1 22975 FLbim NA NA audio-keyboard-response 52 NA 14 2 75
1414937 FL learningBlock1 22275 FLbim NA NA audio-keyboard-response 55 NA 14 2 75
1414937 FL learningBlock1 13475 FLdep NA NA audio-keyboard-response 58 NA 14 1 75
1414937 FL learningBlock1 13575 FLdep NA NA audio-keyboard-response 61 NA 14 1 75
1414937 FL learningBlock1 10725 FLdep NA NA audio-keyboard-response 64 NA 14 1 25
1414937 FL learningBlock1 30975 FLtob NA NA audio-keyboard-response 67 NA 14 3 75
1414937 FL learningBlock1 22175 FLbim NA NA audio-keyboard-response 70 NA 14 2 75
1414937 FL learningBlock1 10475 FLdep NA NA audio-keyboard-response 73 NA 14 1 75
1414937 FL learningBlock1 22675 FLbim NA NA audio-keyboard-response 76 NA 14 2 75
1414937 FL learningBlock1 12775 FLdep NA NA audio-keyboard-response 79 NA 14 1 75
1414937 FL learningBlock1 31075 FLtob NA NA audio-keyboard-response 82 NA 14 3 75
1414937 FL learningBlock1 20575 FLbim NA NA audio-keyboard-response 85 NA 14 2 75
1414937 FL learningBlock1 20775 FLbim NA NA audio-keyboard-response 88 NA 14 2 75
1414937 FL learningBlock1 11825 FLdep NA NA audio-keyboard-response 91 NA 14 1 25
1414937 FL learningBlock1 32475 FLtob NA NA audio-keyboard-response 94 NA 14 3 75
1414937 FL learningBlock1 21475 FLbim NA NA audio-keyboard-response 97 NA 14 2 75
1414937 FL learningBlock1 32875 FLtob NA NA audio-keyboard-response 100 NA 14 3 75
1414937 FL learningBlock2 30175 FLtob NA NA audio-keyboard-response 109 NA 14 3 75
1414937 FL learningBlock2 22175 FLbim NA NA audio-keyboard-response 112 NA 14 2 75
1414937 FL learningBlock2 10875 FLdep NA NA audio-keyboard-response 115 NA 14 1 75
1414937 FL learningBlock2 11575 FLdep NA NA audio-keyboard-response 118 NA 14 1 75
1414937 FL learningBlock2 20175 FLbim NA NA audio-keyboard-response 121 NA 14 2 75
1414937 FL learningBlock2 10725 FLdep NA NA audio-keyboard-response 124 NA 14 1 25
1414937 FL learningBlock2 31575 FLtob NA NA audio-keyboard-response 127 NA 14 3 75
1414937 FL learningBlock2 22225 FLbim NA NA audio-keyboard-response 130 NA 14 2 25
1414937 FL learningBlock2 13175 FLdep NA NA audio-keyboard-response 133 NA 14 1 75
1414937 FL learningBlock2 31875 FLtob NA NA audio-keyboard-response 136 NA 14 3 75
1414937 FL learningBlock2 21475 FLbim NA NA audio-keyboard-response 139 NA 14 2 75
1414937 FL learningBlock2 11775 FLdep NA NA audio-keyboard-response 142 NA 14 1 75
1414937 FL learningBlock2 13475 FLdep NA NA audio-keyboard-response 145 NA 14 1 75
1414937 FL learningBlock2 31225 FLtob NA NA audio-keyboard-response 148 NA 14 3 25
1414937 FL learningBlock2 32775 FLtob NA NA audio-keyboard-response 151 NA 14 3 75
1414937 FL learningBlock2 11975 FLdep NA NA audio-keyboard-response 154 NA 14 1 75
1414937 FL learningBlock2 31275 FLtob NA NA audio-keyboard-response 157 NA 14 3 75
1414937 FL learningBlock2 32575 FLtob NA NA audio-keyboard-response 160 NA 14 3 75
1414937 FL learningBlock2 11175 FLdep NA NA audio-keyboard-response 163 NA 14 1 75
1414937 FL learningBlock2 30525 FLtob NA NA audio-keyboard-response 166 NA 14 3 25
1414937 FL learningBlock2 13575 FLdep NA NA audio-keyboard-response 169 NA 14 1 75
1414937 FL learningBlock2 31125 FLtob NA NA audio-keyboard-response 172 NA 14 3 25
1414937 FL learningBlock2 21125 FLbim NA NA audio-keyboard-response 175 NA 14 2 25
1414937 FL learningBlock2 21575 FLbim NA NA audio-keyboard-response 178 NA 14 2 75
1414937 FL learningBlock2 31775 FLtob NA NA audio-keyboard-response 181 NA 14 3 75
1414937 FL learningBlock2 30725 FLtob NA NA audio-keyboard-response 184 NA 14 3 25
1414937 FL learningBlock2 12525 FLdep NA NA audio-keyboard-response 187 NA 14 1 25
1414937 FL learningBlock2 11575 FLdep NA NA audio-keyboard-response 190 NA 14 1 75
1414937 FL learningBlock2 30725 FLtob NA NA audio-keyboard-response 193 NA 14 3 25
1414937 FL learningBlock2 21275 FLbim NA NA audio-keyboard-response 196 NA 14 2 75
1414937 FL learningBlock2 13275 FLdep NA NA audio-keyboard-response 199 NA 14 1 75
1414937 FL learningBlock2 23075 FLbim NA NA audio-keyboard-response 202 NA 14 2 75
1414937 FL learningBlock2 30175 FLtob NA NA audio-keyboard-response 205 NA 14 3 75
1414937 FL learningBlock2 22475 FLbim NA NA audio-keyboard-response 208 NA 14 2 75
1414937 FL learningBlock2 11675 FLdep NA NA audio-keyboard-response 211 NA 14 1 75
1414937 FL learningBlock2 12175 FLdep NA NA audio-keyboard-response 214 NA 14 1 75
1414937 FL learningBlock2 32675 FLtob NA NA audio-keyboard-response 217 NA 14 3 75
1414937 FL learningBlock2 11275 FLdep NA NA audio-keyboard-response 220 NA 14 1 75
1414937 FL learningBlock2 13175 FLdep NA NA audio-keyboard-response 223 NA 14 1 75
1414937 FL learningBlock2 21275 FLbim NA NA audio-keyboard-response 226 NA 14 2 75
1414937 FL learningBlock2 31525 FLtob NA NA audio-keyboard-response 229 NA 14 3 25
1414937 FL learningBlock2 13275 FLdep NA NA audio-keyboard-response 232 NA 14 1 75
1414937 FL learningBlock2 10425 FLdep NA NA audio-keyboard-response 235 NA 14 1 25
1414937 FL learningBlock2 31225 FLtob NA NA audio-keyboard-response 238 NA 14 3 25
1414937 FL learningBlock2 22075 FLbim NA NA audio-keyboard-response 241 NA 14 2 75
1414937 FL learningBlock2 10325 FLdep NA NA audio-keyboard-response 244 NA 14 1 25
1414937 FL learningBlock2 10675 FLdep NA NA audio-keyboard-response 247 NA 14 1 75
1414937 FL learningBlock3 32475 FLtob NA NA audio-keyboard-response 256 NA 14 3 75
1414937 FL learningBlock3 20375 FLbim NA NA audio-keyboard-response 259 NA 14 2 75
1414937 FL learningBlock3 31125 FLtob NA NA audio-keyboard-response 262 NA 14 3 25
1414937 FL learningBlock3 12525 FLdep NA NA audio-keyboard-response 265 NA 14 1 25
1414937 FL learningBlock3 21075 FLbim NA NA audio-keyboard-response 268 NA 14 2 75
1414937 FL learningBlock3 12775 FLdep NA NA audio-keyboard-response 271 NA 14 1 75
1414937 FL learningBlock3 22275 FLbim NA NA audio-keyboard-response 274 NA 14 2 75
1414937 FL learningBlock3 11775 FLdep NA NA audio-keyboard-response 277 NA 14 1 75
1414937 FL learningBlock3 32575 FLtob NA NA audio-keyboard-response 280 NA 14 3 75
1414937 FL learningBlock3 23075 FLbim NA NA audio-keyboard-response 283 NA 14 2 75
1414937 FL learningBlock3 21825 FLbim NA NA audio-keyboard-response 286 NA 14 2 25
1414937 FL learningBlock3 32075 FLtob NA NA audio-keyboard-response 289 NA 14 3 75
1414937 FL learningBlock3 11675 FLdep NA NA audio-keyboard-response 292 NA 14 1 75
1414937 FL learningBlock3 31175 FLtob NA NA audio-keyboard-response 295 NA 14 3 75
1414937 FL learningBlock3 30525 FLtob NA NA audio-keyboard-response 298 NA 14 3 25
1414937 FL learningBlock3 31775 FLtob NA NA audio-keyboard-response 301 NA 14 3 75
1414937 FL learningBlock3 20575 FLbim NA NA audio-keyboard-response 304 NA 14 2 75
1414937 FL learningBlock3 31525 FLtob NA NA audio-keyboard-response 307 NA 14 3 25
1414937 FL learningBlock3 22325 FLbim NA NA audio-keyboard-response 310 NA 14 2 25
1414937 FL learningBlock3 22975 FLbim NA NA audio-keyboard-response 313 NA 14 2 75
1414937 FL learningBlock3 32075 FLtob NA NA audio-keyboard-response 316 NA 14 3 75
1414937 FL learningBlock3 10875 FLdep NA NA audio-keyboard-response 319 NA 14 1 75
1414937 FL learningBlock3 20775 FLbim NA NA audio-keyboard-response 322 NA 14 2 75
1414937 FL learningBlock3 12175 FLdep NA NA audio-keyboard-response 325 NA 14 1 75
1414937 FL learningBlock3 11825 FLdep NA NA audio-keyboard-response 328 NA 14 1 25
1414937 FL learningBlock4 31175 FLtob NA NA audio-keyboard-response 337 NA 14 3 75
1414937 FL learningBlock4 10475 FLdep NA NA audio-keyboard-response 340 NA 14 1 75
1414937 FL learningBlock4 22075 FLbim NA NA audio-keyboard-response 343 NA 14 2 75
1414937 FL learningBlock4 22225 FLbim NA NA audio-keyboard-response 346 NA 14 2 25
1414937 FL learningBlock4 22475 FLbim NA NA audio-keyboard-response 349 NA 14 2 75
1414937 FL learningBlock4 11975 FLdep NA NA audio-keyboard-response 352 NA 14 1 75
1414937 FL learningBlock4 30975 FLtob NA NA audio-keyboard-response 355 NA 14 3 75
1414937 FL learningBlock4 31275 FLtob NA NA audio-keyboard-response 358 NA 14 3 75
1414937 FL learningBlock4 30875 FLtob NA NA audio-keyboard-response 361 NA 14 3 75
1414937 FL learningBlock4 11275 FLdep NA NA audio-keyboard-response 364 NA 14 1 75
1414937 FL learningBlock4 11175 FLdep NA NA audio-keyboard-response 367 NA 14 1 75
1414937 FL learningBlock4 30875 FLtob NA NA audio-keyboard-response 370 NA 14 3 75
1414937 FL learningBlock4 21125 FLbim NA NA audio-keyboard-response 373 NA 14 2 25
1414937 FL learningBlock4 21075 FLbim NA NA audio-keyboard-response 376 NA 14 2 75
1414937 FL learningBlock4 22025 FLbim NA NA audio-keyboard-response 379 NA 14 2 25
1414937 FL learningBlock4 20175 FLbim NA NA audio-keyboard-response 382 NA 14 2 75
1414937 FL learningBlock4 31875 FLtob NA NA audio-keyboard-response 385 NA 14 3 75
1414937 FL learningBlock4 32675 FLtob NA NA audio-keyboard-response 388 NA 14 3 75
1414937 FL learningBlock4 10675 FLdep NA NA audio-keyboard-response 391 NA 14 1 75
1414937 FL learningBlock4 22325 FLbim NA NA audio-keyboard-response 394 NA 14 2 25
1414937 FL learningBlock4 10325 FLdep NA NA audio-keyboard-response 397 NA 14 1 25
1414945 FL learningBlock1 21325 FLbim NA NA audio-keyboard-response 22 NA 14 2 25
1414945 FL learningBlock1 10975 FLdep NA NA audio-keyboard-response 25 NA 14 1 75
1414945 FL learningBlock1 21375 FLbim NA NA audio-keyboard-response 28 NA 14 2 75
1414945 FL learningBlock1 13375 FLdep NA NA audio-keyboard-response 31 NA 14 1 75
1414945 FL learningBlock1 13175 FLdep NA NA audio-keyboard-response 34 NA 14 1 75
1414945 FL learningBlock1 33275 FLtob NA NA audio-keyboard-response 37 NA 14 3 75
1414945 FL learningBlock1 22375 FLbim NA NA audio-keyboard-response 40 NA 14 2 75
1414945 FL learningBlock1 22075 FLbim NA NA audio-keyboard-response 43 NA 14 2 75
1414945 FL learningBlock1 11875 FLdep NA NA audio-keyboard-response 46 NA 14 1 75
1414945 FL learningBlock1 12075 FLdep NA NA audio-keyboard-response 49 NA 14 1 75
1414945 FL learningBlock1 32225 FLtob NA NA audio-keyboard-response 52 NA 14 3 25
1414945 FL learningBlock1 22775 FLbim NA NA audio-keyboard-response 55 NA 14 2 75
1414945 FL learningBlock1 10975 FLdep NA NA audio-keyboard-response 58 NA 14 1 75
1414945 FL learningBlock1 30825 FLtob NA NA audio-keyboard-response 61 NA 14 3 25
1414945 FL learningBlock1 11925 FLdep NA NA audio-keyboard-response 64 NA 14 1 25
1414945 FL learningBlock1 21925 FLbim NA NA audio-keyboard-response 67 NA 14 2 25
1414945 FL learningBlock1 20775 FLbim NA NA audio-keyboard-response 70 NA 14 2 75
1414945 FL learningBlock1 12975 FLdep NA NA audio-keyboard-response 73 NA 14 1 75
1414945 FL learningBlock1 10325 FLdep NA NA audio-keyboard-response 76 NA 14 1 25
1414945 FL learningBlock1 13575 FLdep NA NA audio-keyboard-response 79 NA 14 1 75
1414945 FL learningBlock1 10275 FLdep NA NA audio-keyboard-response 82 NA 14 1 75
1414945 FL learningBlock1 10525 FLdep NA NA audio-keyboard-response 85 NA 14 1 25
1414945 FL learningBlock1 10325 FLdep NA NA audio-keyboard-response 88 NA 14 1 25
1414945 FL learningBlock1 10175 FLdep NA NA audio-keyboard-response 91 NA 14 1 75
1414945 FL learningBlock1 32775 FLtob NA NA audio-keyboard-response 94 NA 14 3 75
1414945 FL learningBlock1 32875 FLtob NA NA audio-keyboard-response 97 NA 14 3 75
1414945 FL learningBlock1 30275 FLtob NA NA audio-keyboard-response 100 NA 14 3 75
1414945 FL learningBlock1 21475 FLbim NA NA audio-keyboard-response 103 NA 14 2 75
1414945 FL learningBlock1 30975 FLtob NA NA audio-keyboard-response 106 NA 14 3 75
1414945 FL learningBlock1 20575 FLbim NA NA audio-keyboard-response 109 NA 14 2 75
1414945 FL learningBlock2 32325 FLtob NA NA audio-keyboard-response 118 NA 14 3 25
1414945 FL learningBlock2 32875 FLtob NA NA audio-keyboard-response 121 NA 14 3 75
1414945 FL learningBlock2 20875 FLbim NA NA audio-keyboard-response 124 NA 14 2 75
1414945 FL learningBlock2 32325 FLtob NA NA audio-keyboard-response 127 NA 14 3 25
1414945 FL learningBlock2 20725 FLbim NA NA audio-keyboard-response 130 NA 14 2 25
1414945 FL learningBlock2 31375 FLtob NA NA audio-keyboard-response 133 NA 14 3 75
1414945 FL learningBlock2 31725 FLtob NA NA audio-keyboard-response 136 NA 14 3 25
1414945 FL learningBlock2 22075 FLbim NA NA audio-keyboard-response 139 NA 14 2 75
1414945 FL learningBlock2 21675 FLbim NA NA audio-keyboard-response 142 NA 14 2 75
1414945 FL learningBlock2 13375 FLdep NA NA audio-keyboard-response 145 NA 14 1 75
1414945 FL learningBlock2 31675 FLtob NA NA audio-keyboard-response 148 NA 14 3 75
1414945 FL learningBlock2 22875 FLbim NA NA audio-keyboard-response 151 NA 14 2 75
1414945 FL learningBlock2 21375 FLbim NA NA audio-keyboard-response 154 NA 14 2 75
1414945 FL learningBlock2 10125 FLdep NA NA audio-keyboard-response 157 NA 14 1 25
1414945 FL learningBlock2 33575 FLtob NA NA audio-keyboard-response 160 NA 14 3 75
1414945 FL learningBlock2 12975 FLdep NA NA audio-keyboard-response 163 NA 14 1 75
1414945 FL learningBlock2 23275 FLbim NA NA audio-keyboard-response 166 NA 14 2 75
1414945 FL learningBlock2 20175 FLbim NA NA audio-keyboard-response 169 NA 14 2 75
1414945 FL learningBlock2 32225 FLtob NA NA audio-keyboard-response 172 NA 14 3 25
1414945 FL learningBlock2 12475 FLdep NA NA audio-keyboard-response 175 NA 14 1 75
1414945 FL learningBlock2 12475 FLdep NA NA audio-keyboard-response 178 NA 14 1 75
1414945 FL learningBlock2 32775 FLtob NA NA audio-keyboard-response 181 NA 14 3 75
1414945 FL learningBlock2 21925 FLbim NA NA audio-keyboard-response 184 NA 14 2 25
1414945 FL learningBlock2 30875 FLtob NA NA audio-keyboard-response 187 NA 14 3 75
1414945 FL learningBlock3 31875 FLtob NA NA audio-keyboard-response 196 NA 14 3 75
1414945 FL learningBlock3 23275 FLbim NA NA audio-keyboard-response 199 NA 14 2 75
1414945 FL learningBlock3 30975 FLtob NA NA audio-keyboard-response 202 NA 14 3 75
1414945 FL learningBlock3 13575 FLdep NA NA audio-keyboard-response 205 NA 14 1 75
1414945 FL learningBlock3 32425 FLtob NA NA audio-keyboard-response 208 NA 14 3 25
1414945 FL learningBlock3 31075 FLtob NA NA audio-keyboard-response 211 NA 14 3 75
1414945 FL learningBlock3 22875 FLbim NA NA audio-keyboard-response 214 NA 14 2 75
1414945 FL learningBlock3 20275 FLbim NA NA audio-keyboard-response 217 NA 14 2 75
1414945 FL learningBlock3 31175 FLtob NA NA audio-keyboard-response 220 NA 14 3 75
1414945 FL learningBlock3 33075 FLtob NA NA audio-keyboard-response 223 NA 14 3 75
1414945 FL learningBlock3 12775 FLdep NA NA audio-keyboard-response 226 NA 14 1 75
1414945 FL learningBlock3 23075 FLbim NA NA audio-keyboard-response 229 NA 14 2 75
1414945 FL learningBlock3 10525 FLdep NA NA audio-keyboard-response 232 NA 14 1 25
1414945 FL learningBlock3 23075 FLbim NA NA audio-keyboard-response 235 NA 14 2 75
1414945 FL learningBlock3 10375 FLdep NA NA audio-keyboard-response 238 NA 14 1 75
1414945 FL learningBlock3 31875 FLtob NA NA audio-keyboard-response 241 NA 14 3 75
1414945 FL learningBlock3 13175 FLdep NA NA audio-keyboard-response 244 NA 14 1 75
1414945 FL learningBlock3 22175 FLbim NA NA audio-keyboard-response 247 NA 14 2 75
1414945 FL learningBlock3 33575 FLtob NA NA audio-keyboard-response 250 NA 14 3 75
1414945 FL learningBlock3 32475 FLtob NA NA audio-keyboard-response 253 NA 14 3 75
1414945 FL learningBlock3 11325 FLdep NA NA audio-keyboard-response 256 NA 14 1 25
1414945 FL learningBlock3 30875 FLtob NA NA audio-keyboard-response 259 NA 14 3 75
1414945 FL learningBlock3 31675 FLtob NA NA audio-keyboard-response 262 NA 14 3 75
1414945 FL learningBlock3 30825 FLtob NA NA audio-keyboard-response 265 NA 14 3 25
1414945 FL learningBlock3 33075 FLtob NA NA audio-keyboard-response 268 NA 14 3 75
1414945 FL learningBlock3 10175 FLdep NA NA audio-keyboard-response 271 NA 14 1 75
1414945 FL learningBlock3 20425 FLbim NA NA audio-keyboard-response 274 NA 14 2 25
1414945 FL learningBlock3 31275 FLtob NA NA audio-keyboard-response 277 NA 14 3 75
1414945 FL learningBlock3 12775 FLdep NA NA audio-keyboard-response 280 NA 14 1 75
1414945 FL learningBlock3 20725 FLbim NA NA audio-keyboard-response 283 NA 14 2 25
1414945 FL learningBlock3 22775 FLbim NA NA audio-keyboard-response 286 NA 14 2 75
1414945 FL learningBlock3 32475 FLtob NA NA audio-keyboard-response 289 NA 14 3 75
1414945 FL learningBlock3 21475 FLbim NA NA audio-keyboard-response 292 NA 14 2 75
1414945 FL learningBlock3 11275 FLdep NA NA audio-keyboard-response 295 NA 14 1 75
1414945 FL learningBlock3 20875 FLbim NA NA audio-keyboard-response 298 NA 14 2 75
1414945 FL learningBlock3 21425 FLbim NA NA audio-keyboard-response 301 NA 14 2 25
1414945 FL learningBlock4 12075 FLdep NA NA audio-keyboard-response 310 NA 14 1 75
1414945 FL learningBlock4 30275 FLtob NA NA audio-keyboard-response 313 NA 14 3 75
1414945 FL learningBlock4 21675 FLbim NA NA audio-keyboard-response 316 NA 14 2 75
1414945 FL learningBlock4 12275 FLdep NA NA audio-keyboard-response 319 NA 14 1 75
1414945 FL learningBlock4 12275 FLdep NA NA audio-keyboard-response 322 NA 14 1 75
1414945 FL learningBlock4 21425 FLbim NA NA audio-keyboard-response 325 NA 14 2 25
1414945 FL learningBlock4 31275 FLtob NA NA audio-keyboard-response 328 NA 14 3 75
1414945 FL learningBlock4 11475 FLdep NA NA audio-keyboard-response 331 NA 14 1 75
1414945 FL learningBlock4 31075 FLtob NA NA audio-keyboard-response 334 NA 14 3 75
1414945 FL learningBlock4 11275 FLdep NA NA audio-keyboard-response 337 NA 14 1 75
1414945 FL learningBlock4 10375 FLdep NA NA audio-keyboard-response 340 NA 14 1 75
1414945 FL learningBlock4 10275 FLdep NA NA audio-keyboard-response 343 NA 14 1 75
1414945 FL learningBlock4 31375 FLtob NA NA audio-keyboard-response 346 NA 14 3 75
1414945 FL learningBlock4 11925 FLdep NA NA audio-keyboard-response 349 NA 14 1 25
1414945 FL learningBlock4 20575 FLbim NA NA audio-keyboard-response 352 NA 14 2 75
1414945 FL learningBlock4 20275 FLbim NA NA audio-keyboard-response 355 NA 14 2 75
1414945 FL learningBlock4 33275 FLtob NA NA audio-keyboard-response 358 NA 14 3 75
1414945 FL learningBlock4 20775 FLbim NA NA audio-keyboard-response 361 NA 14 2 75
1414945 FL learningBlock4 20175 FLbim NA NA audio-keyboard-response 364 NA 14 2 75
1414945 FL learningBlock4 31175 FLtob NA NA audio-keyboard-response 367 NA 14 3 75
1414945 FL learningBlock4 11875 FLdep NA NA audio-keyboard-response 370 NA 14 1 75
1414945 FL learningBlock4 22375 FLbim NA NA audio-keyboard-response 373 NA 14 2 75
1414945 FL learningBlock4 32425 FLtob NA NA audio-keyboard-response 376 NA 14 3 25
1414945 FL learningBlock4 31725 FLtob NA NA audio-keyboard-response 379 NA 14 3 25
1414945 FL learningBlock4 22175 FLbim NA NA audio-keyboard-response 382 NA 14 2 75
1414945 FL learningBlock4 21325 FLbim NA NA audio-keyboard-response 385 NA 14 2 25
1414945 FL learningBlock4 10125 FLdep NA NA audio-keyboard-response 388 NA 14 1 25
1414945 FL learningBlock4 11475 FLdep NA NA audio-keyboard-response 391 NA 14 1 75
1414945 FL learningBlock4 20425 FLbim NA NA audio-keyboard-response 394 NA 14 2 25
1414945 FL learningBlock4 11325 FLdep NA NA audio-keyboard-response 397 NA 14 1 25
1414957 FL learningBlock1 30825 FLtob NA NA audio-keyboard-response 22 NA 14 3 25
1414957 FL learningBlock1 21125 FLbim NA NA audio-keyboard-response 25 NA 14 2 25
1414957 FL learningBlock1 31975 FLtob NA NA audio-keyboard-response 28 NA 14 3 75
1414957 FL learningBlock1 10975 FLdep NA NA audio-keyboard-response 31 NA 14 1 75
1414957 FL learningBlock1 12775 FLdep NA NA audio-keyboard-response 34 NA 14 1 75
1414957 FL learningBlock1 23475 FLbim NA NA audio-keyboard-response 37 NA 14 2 75
1414957 FL learningBlock1 10375 FLdep NA NA audio-keyboard-response 40 NA 14 1 75
1414957 FL learningBlock1 10525 FLdep NA NA audio-keyboard-response 43 NA 14 1 25
1414957 FL learningBlock1 21975 FLbim NA NA audio-keyboard-response 46 NA 14 2 75
1414957 FL learningBlock1 22975 FLbim NA NA audio-keyboard-response 49 NA 14 2 75
1414957 FL learningBlock1 32525 FLtob NA NA audio-keyboard-response 52 NA 14 3 25
1414957 FL learningBlock1 10175 FLdep NA NA audio-keyboard-response 55 NA 14 1 75
1414957 FL learningBlock1 20825 FLbim NA NA audio-keyboard-response 58 NA 14 2 25
1414957 FL learningBlock1 10725 FLdep NA NA audio-keyboard-response 61 NA 14 1 25
1414957 FL learningBlock1 31375 FLtob NA NA audio-keyboard-response 64 NA 14 3 75
1414957 FL learningBlock1 13475 FLdep NA NA audio-keyboard-response 67 NA 14 1 75
1414957 FL learningBlock1 13275 FLdep NA NA audio-keyboard-response 70 NA 14 1 75
1414957 FL learningBlock1 10375 FLdep NA NA audio-keyboard-response 73 NA 14 1 75
1414957 FL learningBlock1 31375 FLtob NA NA audio-keyboard-response 76 NA 14 3 75
1414957 FL learningBlock1 21425 FLbim NA NA audio-keyboard-response 79 NA 14 2 25
1414957 FL learningBlock1 21775 FLbim NA NA audio-keyboard-response 82 NA 14 2 75
1414957 FL learningBlock1 10175 FLdep NA NA audio-keyboard-response 85 NA 14 1 75
1414957 FL learningBlock1 22525 FLbim NA NA audio-keyboard-response 88 NA 14 2 25
1414957 FL learningBlock1 13375 FLdep NA NA audio-keyboard-response 91 NA 14 1 75
1414957 FL learningBlock1 30975 FLtob NA NA audio-keyboard-response 94 NA 14 3 75
1414957 FL learningBlock1 10475 FLdep NA NA audio-keyboard-response 97 NA 14 1 75
1414957 FL learningBlock1 21675 FLbim NA NA audio-keyboard-response 100 NA 14 2 75
1414957 FL learningBlock1 12275 FLdep NA NA audio-keyboard-response 103 NA 14 1 75
1414957 FL learningBlock1 30675 FLtob NA NA audio-keyboard-response 106 NA 14 3 75
1414957 FL learningBlock1 30675 FLtob NA NA audio-keyboard-response 109 NA 14 3 75
1414957 FL learningBlock1 12975 FLdep NA NA audio-keyboard-response 112 NA 14 1 75
1414957 FL learningBlock1 30875 FLtob NA NA audio-keyboard-response 115 NA 14 3 75
1414957 FL learningBlock2 32575 FLtob NA NA audio-keyboard-response 124 NA 14 3 75
1414957 FL learningBlock2 12775 FLdep NA NA audio-keyboard-response 127 NA 14 1 75
1414957 FL learningBlock2 31075 FLtob NA NA audio-keyboard-response 130 NA 14 3 75
1414957 FL learningBlock2 30975 FLtob NA NA audio-keyboard-response 133 NA 14 3 75
1414957 FL learningBlock2 30775 FLtob NA NA audio-keyboard-response 136 NA 14 3 75
1414957 FL learningBlock2 33175 FLtob NA NA audio-keyboard-response 139 NA 14 3 75
1414957 FL learningBlock2 10725 FLdep NA NA audio-keyboard-response 142 NA 14 1 25
1414957 FL learningBlock2 13375 FLdep NA NA audio-keyboard-response 145 NA 14 1 75
1414957 FL learningBlock2 20675 FLbim NA NA audio-keyboard-response 148 NA 14 2 75
1414957 FL learningBlock2 32475 FLtob NA NA audio-keyboard-response 151 NA 14 3 75
1414957 FL learningBlock2 32675 FLtob NA NA audio-keyboard-response 154 NA 14 3 75
1414957 FL learningBlock2 20575 FLbim NA NA audio-keyboard-response 157 NA 14 2 75
1414957 FL learningBlock2 10525 FLdep NA NA audio-keyboard-response 160 NA 14 1 25
1414957 FL learningBlock2 20675 FLbim NA NA audio-keyboard-response 163 NA 14 2 75
1414957 FL learningBlock2 31825 FLtob NA NA audio-keyboard-response 166 NA 14 3 25
1414957 FL learningBlock2 10875 FLdep NA NA audio-keyboard-response 169 NA 14 1 75
1414957 FL learningBlock2 20475 FLbim NA NA audio-keyboard-response 172 NA 14 2 75
1414957 FL learningBlock2 21125 FLbim NA NA audio-keyboard-response 175 NA 14 2 25
1414957 FL learningBlock2 11625 FLdep NA NA audio-keyboard-response 178 NA 14 1 25
1414957 FL learningBlock2 23275 FLbim NA NA audio-keyboard-response 181 NA 14 2 75
1414957 FL learningBlock2 33375 FLtob NA NA audio-keyboard-response 184 NA 14 3 75
1414957 FL learningBlock2 12975 FLdep NA NA audio-keyboard-response 187 NA 14 1 75
1414957 FL learningBlock2 31175 FLtob NA NA audio-keyboard-response 190 NA 14 3 75
1414957 FL learningBlock2 10475 FLdep NA NA audio-keyboard-response 193 NA 14 1 75
1414957 FL learningBlock2 21675 FLbim NA NA audio-keyboard-response 196 NA 14 2 75
1414957 FL learningBlock2 22975 FLbim NA NA audio-keyboard-response 199 NA 14 2 75
1414957 FL learningBlock2 10325 FLdep NA NA audio-keyboard-response 202 NA 14 1 25
1414957 FL learningBlock2 31175 FLtob NA NA audio-keyboard-response 205 NA 14 3 75
1414957 FL learningBlock2 22775 FLbim NA NA audio-keyboard-response 208 NA 14 2 75
1414957 FL learningBlock2 12875 FLdep NA NA audio-keyboard-response 211 NA 14 1 75
1414957 FL learningBlock2 20475 FLbim NA NA audio-keyboard-response 214 NA 14 2 75
1414957 FL learningBlock2 20825 FLbim NA NA audio-keyboard-response 217 NA 14 2 25
1414957 FL learningBlock3 13275 FLdep NA NA audio-keyboard-response 226 NA 14 1 75
1414957 FL learningBlock3 21925 FLbim NA NA audio-keyboard-response 229 NA 14 2 25
1414957 FL learningBlock3 20175 FLbim NA NA audio-keyboard-response 232 NA 14 2 75
1414957 FL learningBlock3 22775 FLbim NA NA audio-keyboard-response 235 NA 14 2 75
1414957 FL learningBlock3 10875 FLdep NA NA audio-keyboard-response 238 NA 14 1 75
1414957 FL learningBlock3 33175 FLtob NA NA audio-keyboard-response 241 NA 14 3 75
1414957 FL learningBlock3 21375 FLbim NA NA audio-keyboard-response 244 NA 14 2 75
1414957 FL learningBlock3 21425 FLbim NA NA audio-keyboard-response 247 NA 14 2 25
1414957 FL learningBlock3 20575 FLbim NA NA audio-keyboard-response 250 NA 14 2 75
1414957 FL learningBlock3 10425 FLdep NA NA audio-keyboard-response 253 NA 14 1 25
1414957 FL learningBlock3 21475 FLbim NA NA audio-keyboard-response 256 NA 14 2 75
1414957 FL learningBlock3 11375 FLdep NA NA audio-keyboard-response 259 NA 14 1 75
1414957 FL learningBlock3 31525 FLtob NA NA audio-keyboard-response 262 NA 14 3 25
1414957 FL learningBlock3 21375 FLbim NA NA audio-keyboard-response 265 NA 14 2 75
1414957 FL learningBlock3 32675 FLtob NA NA audio-keyboard-response 268 NA 14 3 75
1414957 FL learningBlock3 23475 FLbim NA NA audio-keyboard-response 271 NA 14 2 75
1414957 FL learningBlock3 10425 FLdep NA NA audio-keyboard-response 274 NA 14 1 25
1414957 FL learningBlock3 33375 FLtob NA NA audio-keyboard-response 277 NA 14 3 75
1414957 FL learningBlock3 21775 FLbim NA NA audio-keyboard-response 280 NA 14 2 75
1414957 FL learningBlock3 30825 FLtob NA NA audio-keyboard-response 283 NA 14 3 25
1414957 FL learningBlock3 10975 FLdep NA NA audio-keyboard-response 286 NA 14 1 75
1414957 FL learningBlock4 30225 FLtob NA NA audio-keyboard-response 295 NA 14 3 25
1414957 FL learningBlock4 13475 FLdep NA NA audio-keyboard-response 298 NA 14 1 75
1414957 FL learningBlock4 12475 FLdep NA NA audio-keyboard-response 301 NA 14 1 75
1414957 FL learningBlock4 10325 FLdep NA NA audio-keyboard-response 304 NA 14 1 25
1414957 FL learningBlock4 30775 FLtob NA NA audio-keyboard-response 307 NA 14 3 75
1414957 FL learningBlock4 12275 FLdep NA NA audio-keyboard-response 310 NA 14 1 75
1414957 FL learningBlock4 23275 FLbim NA NA audio-keyboard-response 313 NA 14 2 75
1414957 FL learningBlock4 11175 FLdep NA NA audio-keyboard-response 316 NA 14 1 75
1414957 FL learningBlock4 32525 FLtob NA NA audio-keyboard-response 319 NA 14 3 25
1414957 FL learningBlock4 12875 FLdep NA NA audio-keyboard-response 322 NA 14 1 75
1414957 FL learningBlock4 31775 FLtob NA NA audio-keyboard-response 325 NA 14 3 75
1414957 FL learningBlock4 21475 FLbim NA NA audio-keyboard-response 328 NA 14 2 75
1414957 FL learningBlock4 20775 FLbim NA NA audio-keyboard-response 331 NA 14 2 75
1414957 FL learningBlock4 11625 FLdep NA NA audio-keyboard-response 334 NA 14 1 25
1414957 FL learningBlock4 31525 FLtob NA NA audio-keyboard-response 337 NA 14 3 25
1414957 FL learningBlock4 30225 FLtob NA NA audio-keyboard-response 340 NA 14 3 25
1414957 FL learningBlock4 22525 FLbim NA NA audio-keyboard-response 343 NA 14 2 25
1414957 FL learningBlock4 31975 FLtob NA NA audio-keyboard-response 346 NA 14 3 75
1414957 FL learningBlock4 32575 FLtob NA NA audio-keyboard-response 349 NA 14 3 75
1414957 FL learningBlock4 20175 FLbim NA NA audio-keyboard-response 352 NA 14 2 75
1414957 FL learningBlock4 22075 FLbim NA NA audio-keyboard-response 355 NA 14 2 75
1414957 FL learningBlock4 32475 FLtob NA NA audio-keyboard-response 358 NA 14 3 75
1414957 FL learningBlock4 31825 FLtob NA NA audio-keyboard-response 361 NA 14 3 25
1414957 FL learningBlock4 11175 FLdep NA NA audio-keyboard-response 364 NA 14 1 75
1414957 FL learningBlock4 21925 FLbim NA NA audio-keyboard-response 367 NA 14 2 25
1414957 FL learningBlock4 30875 FLtob NA NA audio-keyboard-response 370 NA 14 3 75
1414957 FL learningBlock4 11375 FLdep NA NA audio-keyboard-response 373 NA 14 1 75
1414957 FL learningBlock4 32975 FLtob NA NA audio-keyboard-response 376 NA 14 3 75
1414957 FL learningBlock4 21975 FLbim NA NA audio-keyboard-response 379 NA 14 2 75
1414957 FL learningBlock4 31075 FLtob NA NA audio-keyboard-response 382 NA 14 3 75
1414957 FL learningBlock4 32975 FLtob NA NA audio-keyboard-response 385 NA 14 3 75
1414957 FL learningBlock4 20775 FLbim NA NA audio-keyboard-response 388 NA 14 2 75
1414957 FL learningBlock4 12475 FLdep NA NA audio-keyboard-response 391 NA 14 1 75
1414957 FL learningBlock4 22075 FLbim NA NA audio-keyboard-response 394 NA 14 2 75
1414957 FL learningBlock4 31775 FLtob NA NA audio-keyboard-response 397 NA 14 3 75
1415040 FL learningBlock1 20825 FLbim NA NA audio-keyboard-response 22 NA 14 2 25
1415040 FL learningBlock1 21825 FLbim NA NA audio-keyboard-response 25 NA 14 2 25
1415040 FL learningBlock1 21475 FLbim NA NA audio-keyboard-response 28 NA 14 2 75
1415040 FL learningBlock1 31175 FLtob NA NA audio-keyboard-response 31 NA 14 3 75
1415040 FL learningBlock1 32475 FLtob NA NA audio-keyboard-response 34 NA 14 3 75
1415040 FL learningBlock1 20175 FLbim NA NA audio-keyboard-response 37 NA 14 2 75
1415040 FL learningBlock1 10775 FLdep NA NA audio-keyboard-response 40 NA 14 1 75
1415040 FL learningBlock1 11875 FLdep NA NA audio-keyboard-response 43 NA 14 1 75
1415040 FL learningBlock1 33475 FLtob NA NA audio-keyboard-response 46 NA 14 3 75
1415040 FL learningBlock1 32475 FLtob NA NA audio-keyboard-response 49 NA 14 3 75
1415040 FL learningBlock1 30525 FLtob NA NA audio-keyboard-response 52 NA 14 3 25
1415040 FL learningBlock1 21225 FLbim NA NA audio-keyboard-response 55 NA 14 2 25
1415040 FL learningBlock1 31525 FLtob NA NA audio-keyboard-response 58 NA 14 3 25
1415040 FL learningBlock1 11125 FLdep NA NA audio-keyboard-response 61 NA 14 1 25
1415040 FL learningBlock1 23275 FLbim NA NA audio-keyboard-response 64 NA 14 2 75
1415040 FL learningBlock1 11675 FLdep NA NA audio-keyboard-response 67 NA 14 1 75
1415040 FL learningBlock1 33275 FLtob NA NA audio-keyboard-response 70 NA 14 3 75
1415040 FL learningBlock1 10775 FLdep NA NA audio-keyboard-response 73 NA 14 1 75
1415040 FL learningBlock1 22175 FLbim NA NA audio-keyboard-response 76 NA 14 2 75
1415040 FL learningBlock1 33075 FLtob NA NA audio-keyboard-response 79 NA 14 3 75
1415040 FL learningBlock1 30525 FLtob NA NA audio-keyboard-response 82 NA 14 3 25
1415040 FL learningBlock1 31625 FLtob NA NA audio-keyboard-response 85 NA 14 3 25
1415040 FL learningBlock1 30125 FLtob NA NA audio-keyboard-response 88 NA 14 3 25
1415040 FL learningBlock1 30775 FLtob NA NA audio-keyboard-response 91 NA 14 3 75
1415040 FL learningBlock1 22775 FLbim NA NA audio-keyboard-response 94 NA 14 2 75
1415040 FL learningBlock1 32975 FLtob NA NA audio-keyboard-response 97 NA 14 3 75
1415040 FL learningBlock1 12575 FLdep NA NA audio-keyboard-response 100 NA 14 1 75
1415040 FL learningBlock1 13575 FLdep NA NA audio-keyboard-response 103 NA 14 1 75
1415040 FL learningBlock1 10975 FLdep NA NA audio-keyboard-response 106 NA 14 1 75
1415040 FL learningBlock1 22175 FLbim NA NA audio-keyboard-response 109 NA 14 2 75
1415040 FL learningBlock1 21225 FLbim NA NA audio-keyboard-response 112 NA 14 2 25
1415040 FL learningBlock2 30675 FLtob NA NA audio-keyboard-response 121 NA 14 3 75
1415040 FL learningBlock2 21075 FLbim NA NA audio-keyboard-response 124 NA 14 2 75
1415040 FL learningBlock2 31525 FLtob NA NA audio-keyboard-response 127 NA 14 3 25
1415040 FL learningBlock2 20675 FLbim NA NA audio-keyboard-response 130 NA 14 2 75
1415040 FL learningBlock2 11725 FLdep NA NA audio-keyboard-response 133 NA 14 1 25
1415040 FL learningBlock2 33475 FLtob NA NA audio-keyboard-response 136 NA 14 3 75
1415040 FL learningBlock2 21475 FLbim NA NA audio-keyboard-response 139 NA 14 2 75
1415040 FL learningBlock2 30125 FLtob NA NA audio-keyboard-response 142 NA 14 3 25
1415040 FL learningBlock2 20225 FLbim NA NA audio-keyboard-response 145 NA 14 2 25
1415040 FL learningBlock2 12875 FLdep NA NA audio-keyboard-response 148 NA 14 1 75
1415040 FL learningBlock2 11725 FLdep NA NA audio-keyboard-response 151 NA 14 1 25
1415040 FL learningBlock2 10925 FLdep NA NA audio-keyboard-response 154 NA 14 1 25
1415040 FL learningBlock2 23175 FLbim NA NA audio-keyboard-response 157 NA 14 2 75
1415040 FL learningBlock2 32575 FLtob NA NA audio-keyboard-response 160 NA 14 3 75
1415040 FL learningBlock2 31625 FLtob NA NA audio-keyboard-response 163 NA 14 3 25
1415040 FL learningBlock2 20475 FLbim NA NA audio-keyboard-response 166 NA 14 2 75
1415040 FL learningBlock2 31575 FLtob NA NA audio-keyboard-response 169 NA 14 3 75
1415040 FL learningBlock2 31725 FLtob NA NA audio-keyboard-response 172 NA 14 3 25
1415040 FL learningBlock2 11475 FLdep NA NA audio-keyboard-response 175 NA 14 1 75
1415040 FL learningBlock2 11475 FLdep NA NA audio-keyboard-response 178 NA 14 1 75
1415040 FL learningBlock2 11675 FLdep NA NA audio-keyboard-response 181 NA 14 1 75
1415040 FL learningBlock2 23475 FLbim NA NA audio-keyboard-response 184 NA 14 2 75
1415040 FL learningBlock3 31175 FLtob NA NA audio-keyboard-response 193 NA 14 3 75
1415040 FL learningBlock3 22125 FLbim NA NA audio-keyboard-response 196 NA 14 2 25
1415040 FL learningBlock3 32175 FLtob NA NA audio-keyboard-response 199 NA 14 3 75
1415040 FL learningBlock3 12475 FLdep NA NA audio-keyboard-response 202 NA 14 1 75
1415040 FL learningBlock3 30575 FLtob NA NA audio-keyboard-response 205 NA 14 3 75
1415040 FL learningBlock3 10925 FLdep NA NA audio-keyboard-response 208 NA 14 1 25
1415040 FL learningBlock3 11375 FLdep NA NA audio-keyboard-response 211 NA 14 1 75
1415040 FL learningBlock3 20875 FLbim NA NA audio-keyboard-response 214 NA 14 2 75
1415040 FL learningBlock3 33075 FLtob NA NA audio-keyboard-response 217 NA 14 3 75
1415040 FL learningBlock3 32175 FLtob NA NA audio-keyboard-response 220 NA 14 3 75
1415040 FL learningBlock3 31275 FLtob NA NA audio-keyboard-response 223 NA 14 3 75
1415040 FL learningBlock3 31275 FLtob NA NA audio-keyboard-response 226 NA 14 3 75
1415040 FL learningBlock3 10275 FLdep NA NA audio-keyboard-response 229 NA 14 1 75
1415040 FL learningBlock3 20175 FLbim NA NA audio-keyboard-response 232 NA 14 2 75
1415040 FL learningBlock3 22775 FLbim NA NA audio-keyboard-response 235 NA 14 2 75
1415040 FL learningBlock3 13175 FLdep NA NA audio-keyboard-response 238 NA 14 1 75
1415040 FL learningBlock3 31775 FLtob NA NA audio-keyboard-response 241 NA 14 3 75
1415040 FL learningBlock3 20225 FLbim NA NA audio-keyboard-response 244 NA 14 2 25
1415040 FL learningBlock3 11775 FLdep NA NA audio-keyboard-response 247 NA 14 1 75
1415040 FL learningBlock3 22125 FLbim NA NA audio-keyboard-response 250 NA 14 2 25
1415040 FL learningBlock3 32575 FLtob NA NA audio-keyboard-response 253 NA 14 3 75
1415040 FL learningBlock3 12875 FLdep NA NA audio-keyboard-response 256 NA 14 1 75
1415040 FL learningBlock3 10125 FLdep NA NA audio-keyboard-response 259 NA 14 1 25
1415040 FL learningBlock4 23375 FLbim NA NA audio-keyboard-response 268 NA 14 2 75
1415040 FL learningBlock4 22575 FLbim NA NA audio-keyboard-response 271 NA 14 2 75
1415040 FL learningBlock4 31075 FLtob NA NA audio-keyboard-response 274 NA 14 3 75
1415040 FL learningBlock4 10275 FLdep NA NA audio-keyboard-response 277 NA 14 1 75
1415040 FL learningBlock4 21275 FLbim NA NA audio-keyboard-response 280 NA 14 2 75
1415040 FL learningBlock4 13075 FLdep NA NA audio-keyboard-response 283 NA 14 1 75
1415040 FL learningBlock4 23475 FLbim NA NA audio-keyboard-response 286 NA 14 2 75
1415040 FL learningBlock4 20675 FLbim NA NA audio-keyboard-response 289 NA 14 2 75
1415040 FL learningBlock4 30575 FLtob NA NA audio-keyboard-response 292 NA 14 3 75
1415040 FL learningBlock4 10975 FLdep NA NA audio-keyboard-response 295 NA 14 1 75
1415040 FL learningBlock4 13575 FLdep NA NA audio-keyboard-response 298 NA 14 1 75
1415040 FL learningBlock4 23275 FLbim NA NA audio-keyboard-response 301 NA 14 2 75
1415040 FL learningBlock4 12025 FLdep NA NA audio-keyboard-response 304 NA 14 1 25
1415040 FL learningBlock4 33275 FLtob NA NA audio-keyboard-response 307 NA 14 3 75
1415040 FL learningBlock4 11575 FLdep NA NA audio-keyboard-response 310 NA 14 1 75
1415040 FL learningBlock4 20775 FLbim NA NA audio-keyboard-response 313 NA 14 2 75
1415040 FL learningBlock4 31725 FLtob NA NA audio-keyboard-response 316 NA 14 3 25
1415040 FL learningBlock4 10125 FLdep NA NA audio-keyboard-response 319 NA 14 1 25
1415040 FL learningBlock4 11375 FLdep NA NA audio-keyboard-response 322 NA 14 1 75
1415040 FL learningBlock4 11875 FLdep NA NA audio-keyboard-response 325 NA 14 1 75
1415040 FL learningBlock4 20875 FLbim NA NA audio-keyboard-response 328 NA 14 2 75
1415040 FL learningBlock4 23175 FLbim NA NA audio-keyboard-response 331 NA 14 2 75
1415040 FL learningBlock4 11125 FLdep NA NA audio-keyboard-response 334 NA 14 1 25
1415040 FL learningBlock4 12025 FLdep NA NA audio-keyboard-response 337 NA 14 1 25
1415040 FL learningBlock4 30775 FLtob NA NA audio-keyboard-response 340 NA 14 3 75
1415040 FL learningBlock4 31575 FLtob NA NA audio-keyboard-response 343 NA 14 3 75
1415040 FL learningBlock4 13075 FLdep NA NA audio-keyboard-response 346 NA 14 1 75
1415040 FL learningBlock4 23375 FLbim NA NA audio-keyboard-response 349 NA 14 2 75
1415040 FL learningBlock4 21075 FLbim NA NA audio-keyboard-response 352 NA 14 2 75
1415040 FL learningBlock4 21275 FLbim NA NA audio-keyboard-response 355 NA 14 2 75
1415040 FL learningBlock4 21825 FLbim NA NA audio-keyboard-response 358 NA 14 2 25
1415040 FL learningBlock4 31075 FLtob NA NA audio-keyboard-response 361 NA 14 3 75
1415040 FL learningBlock4 12475 FLdep NA NA audio-keyboard-response 364 NA 14 1 75
1415040 FL learningBlock4 11775 FLdep NA NA audio-keyboard-response 367 NA 14 1 75
1415040 FL learningBlock4 20475 FLbim NA NA audio-keyboard-response 370 NA 14 2 75
1415040 FL learningBlock4 11575 FLdep NA NA audio-keyboard-response 373 NA 14 1 75
1415040 FL learningBlock4 13175 FLdep NA NA audio-keyboard-response 376 NA 14 1 75
1415040 FL learningBlock4 20775 FLbim NA NA audio-keyboard-response 379 NA 14 2 75
1415040 FL learningBlock4 31775 FLtob NA NA audio-keyboard-response 382 NA 14 3 75
1415040 FL learningBlock4 32975 FLtob NA NA audio-keyboard-response 385 NA 14 3 75
1415040 FL learningBlock4 30675 FLtob NA NA audio-keyboard-response 388 NA 14 3 75
1415040 FL learningBlock4 20825 FLbim NA NA audio-keyboard-response 391 NA 14 2 25
1415040 FL learningBlock4 12575 FLdep NA NA audio-keyboard-response 394 NA 14 1 75
1415040 FL learningBlock4 22575 FLbim NA NA audio-keyboard-response 397 NA 14 2 75
1431949 FL learningBlock1 20975 FLbim NA NA audio-keyboard-response 22 NA 14 2 75
1431949 FL learningBlock1 31425 FLtob NA NA audio-keyboard-response 25 NA 14 3 25
1431949 FL learningBlock1 12475 FLdep NA NA audio-keyboard-response 28 NA 14 1 75
1431949 FL learningBlock1 11825 FLdep NA NA audio-keyboard-response 31 NA 14 1 25
1431949 FL learningBlock1 10475 FLdep NA NA audio-keyboard-response 34 NA 14 1 75
1431949 FL learningBlock1 20975 FLbim NA NA audio-keyboard-response 37 NA 14 2 75
1431949 FL learningBlock1 23375 FLbim NA NA audio-keyboard-response 40 NA 14 2 75
1431949 FL learningBlock1 32775 FLtob NA NA audio-keyboard-response 43 NA 14 3 75
1431949 FL learningBlock1 21875 FLbim NA NA audio-keyboard-response 46 NA 14 2 75
1431949 FL learningBlock1 20575 FLbim NA NA audio-keyboard-response 49 NA 14 2 75
1431949 FL learningBlock1 21975 FLbim NA NA audio-keyboard-response 52 NA 14 2 75
1431949 FL learningBlock1 22475 FLbim NA NA audio-keyboard-response 55 NA 14 2 75
1431949 FL learningBlock1 20775 FLbim NA NA audio-keyboard-response 58 NA 14 2 75
1431949 FL learningBlock1 20725 FLbim NA NA audio-keyboard-response 61 NA 14 2 25
1431949 FL learningBlock1 23275 FLbim NA NA audio-keyboard-response 64 NA 14 2 75
1431949 FL learningBlock1 22025 FLbim NA NA audio-keyboard-response 67 NA 14 2 25
1431949 FL learningBlock1 10325 FLdep NA NA audio-keyboard-response 70 NA 14 1 25
1431949 FL learningBlock1 32975 FLtob NA NA audio-keyboard-response 73 NA 14 3 75
1431949 FL learningBlock1 12275 FLdep NA NA audio-keyboard-response 76 NA 14 1 75
1431949 FL learningBlock1 31075 FLtob NA NA audio-keyboard-response 79 NA 14 3 75
1431949 FL learningBlock2 21725 FLbim NA NA audio-keyboard-response 88 NA 14 2 25
1431949 FL learningBlock2 20575 FLbim NA NA audio-keyboard-response 91 NA 14 2 75
1431949 FL learningBlock2 30725 FLtob NA NA audio-keyboard-response 94 NA 14 3 25
1431949 FL learningBlock2 31625 FLtob NA NA audio-keyboard-response 97 NA 14 3 25
1431949 FL learningBlock2 32975 FLtob NA NA audio-keyboard-response 100 NA 14 3 75
1431949 FL learningBlock2 10475 FLdep NA NA audio-keyboard-response 103 NA 14 1 75
1431949 FL learningBlock2 32875 FLtob NA NA audio-keyboard-response 106 NA 14 3 75
1431949 FL learningBlock2 31425 FLtob NA NA audio-keyboard-response 109 NA 14 3 25
1431949 FL learningBlock2 12775 FLdep NA NA audio-keyboard-response 112 NA 14 1 75
1431949 FL learningBlock2 30725 FLtob NA NA audio-keyboard-response 115 NA 14 3 25
1431949 FL learningBlock2 21975 FLbim NA NA audio-keyboard-response 118 NA 14 2 75
1431949 FL learningBlock2 21675 FLbim NA NA audio-keyboard-response 121 NA 14 2 75
1431949 FL learningBlock2 21025 FLbim NA NA audio-keyboard-response 124 NA 14 2 25
1431949 FL learningBlock2 10825 FLdep NA NA audio-keyboard-response 127 NA 14 1 25
1431949 FL learningBlock2 13375 FLdep NA NA audio-keyboard-response 130 NA 14 1 75
1431949 FL learningBlock2 32225 FLtob NA NA audio-keyboard-response 133 NA 14 3 25
1431949 FL learningBlock2 31575 FLtob NA NA audio-keyboard-response 136 NA 14 3 75
1431949 FL learningBlock2 32575 FLtob NA NA audio-keyboard-response 139 NA 14 3 75
1431949 FL learningBlock2 20775 FLbim NA NA audio-keyboard-response 142 NA 14 2 75
1431949 FL learningBlock2 12375 FLdep NA NA audio-keyboard-response 145 NA 14 1 75
1431949 FL learningBlock2 32875 FLtob NA NA audio-keyboard-response 148 NA 14 3 75
1431949 FL learningBlock2 32475 FLtob NA NA audio-keyboard-response 151 NA 14 3 75
1431949 FL learningBlock2 10175 FLdep NA NA audio-keyboard-response 154 NA 14 1 75
1431949 FL learningBlock2 31675 FLtob NA NA audio-keyboard-response 157 NA 14 3 75
1431949 FL learningBlock2 30475 FLtob NA NA audio-keyboard-response 160 NA 14 3 75
1431949 FL learningBlock2 22375 FLbim NA NA audio-keyboard-response 163 NA 14 2 75
1431949 FL learningBlock2 11675 FLdep NA NA audio-keyboard-response 166 NA 14 1 75
1431949 FL learningBlock2 11775 FLdep NA NA audio-keyboard-response 169 NA 14 1 75
1431949 FL learningBlock2 21925 FLbim NA NA audio-keyboard-response 172 NA 14 2 25
1431949 FL learningBlock2 12275 FLdep NA NA audio-keyboard-response 175 NA 14 1 75
1431949 FL learningBlock2 12675 FLdep NA NA audio-keyboard-response 178 NA 14 1 75
1431949 FL learningBlock3 30275 FLtob NA NA audio-keyboard-response 187 NA 14 3 75
1431949 FL learningBlock3 11475 FLdep NA NA audio-keyboard-response 190 NA 14 1 75
1431949 FL learningBlock3 33575 FLtob NA NA audio-keyboard-response 193 NA 14 3 75
1431949 FL learningBlock3 20375 FLbim NA NA audio-keyboard-response 196 NA 14 2 75
1431949 FL learningBlock3 33275 FLtob NA NA audio-keyboard-response 199 NA 14 3 75
1431949 FL learningBlock3 30575 FLtob NA NA audio-keyboard-response 202 NA 14 3 75
1431949 FL learningBlock3 12775 FLdep NA NA audio-keyboard-response 205 NA 14 1 75
1431949 FL learningBlock3 21775 FLbim NA NA audio-keyboard-response 208 NA 14 2 75
1431949 FL learningBlock3 32275 FLtob NA NA audio-keyboard-response 211 NA 14 3 75
1431949 FL learningBlock3 22975 FLbim NA NA audio-keyboard-response 214 NA 14 2 75
1431949 FL learningBlock3 21675 FLbim NA NA audio-keyboard-response 217 NA 14 2 75
1431949 FL learningBlock3 10425 FLdep NA NA audio-keyboard-response 220 NA 14 1 25
1431949 FL learningBlock3 20475 FLbim NA NA audio-keyboard-response 223 NA 14 2 75
1431949 FL learningBlock3 32475 FLtob NA NA audio-keyboard-response 226 NA 14 3 75
1431949 FL learningBlock3 20725 FLbim NA NA audio-keyboard-response 229 NA 14 2 25
1431949 FL learningBlock3 22475 FLbim NA NA audio-keyboard-response 232 NA 14 2 75
1431949 FL learningBlock3 31625 FLtob NA NA audio-keyboard-response 235 NA 14 3 25
1431949 FL learningBlock3 13575 FLdep NA NA audio-keyboard-response 238 NA 14 1 75
1431949 FL learningBlock3 30475 FLtob NA NA audio-keyboard-response 241 NA 14 3 75
1431949 FL learningBlock3 10375 FLdep NA NA audio-keyboard-response 244 NA 14 1 75
1431949 FL learningBlock3 21925 FLbim NA NA audio-keyboard-response 247 NA 14 2 25
1431949 FL learningBlock3 32325 FLtob NA NA audio-keyboard-response 250 NA 14 3 25
1431949 FL learningBlock3 21875 FLbim NA NA audio-keyboard-response 253 NA 14 2 75
1431949 FL learningBlock3 11075 FLdep NA NA audio-keyboard-response 256 NA 14 1 75
1431949 FL learningBlock3 12675 FLdep NA NA audio-keyboard-response 259 NA 14 1 75
1431949 FL learningBlock3 21775 FLbim NA NA audio-keyboard-response 262 NA 14 2 75
1431949 FL learningBlock4 11475 FLdep NA NA audio-keyboard-response 271 NA 14 1 75
1431949 FL learningBlock4 12475 FLdep NA NA audio-keyboard-response 274 NA 14 1 75
1431949 FL learningBlock4 13375 FLdep NA NA audio-keyboard-response 277 NA 14 1 75
1431949 FL learningBlock4 13575 FLdep NA NA audio-keyboard-response 280 NA 14 1 75
1431949 FL learningBlock4 31375 FLtob NA NA audio-keyboard-response 283 NA 14 3 75
1431949 FL learningBlock4 22875 FLbim NA NA audio-keyboard-response 286 NA 14 2 75
1431949 FL learningBlock4 10425 FLdep NA NA audio-keyboard-response 289 NA 14 1 25
1431949 FL learningBlock4 13275 FLdep NA NA audio-keyboard-response 292 NA 14 1 75
1431949 FL learningBlock4 12375 FLdep NA NA audio-keyboard-response 295 NA 14 1 75
1431949 FL learningBlock4 33275 FLtob NA NA audio-keyboard-response 298 NA 14 3 75
1431949 FL learningBlock4 32775 FLtob NA NA audio-keyboard-response 301 NA 14 3 75
1431949 FL learningBlock4 22875 FLbim NA NA audio-keyboard-response 304 NA 14 2 75
1431949 FL learningBlock4 11075 FLdep NA NA audio-keyboard-response 307 NA 14 1 75
1431949 FL learningBlock4 21725 FLbim NA NA audio-keyboard-response 310 NA 14 2 25
1431949 FL learningBlock4 33575 FLtob NA NA audio-keyboard-response 313 NA 14 3 75
1431949 FL learningBlock4 23375 FLbim NA NA audio-keyboard-response 316 NA 14 2 75
1431949 FL learningBlock4 10125 FLdep NA NA audio-keyboard-response 319 NA 14 1 25
1431949 FL learningBlock4 31075 FLtob NA NA audio-keyboard-response 322 NA 14 3 75
1431949 FL learningBlock4 11775 FLdep NA NA audio-keyboard-response 325 NA 14 1 75
1431949 FL learningBlock4 10125 FLdep NA NA audio-keyboard-response 328 NA 14 1 25
1431949 FL learningBlock4 13275 FLdep NA NA audio-keyboard-response 331 NA 14 1 75
1431949 FL learningBlock4 22375 FLbim NA NA audio-keyboard-response 334 NA 14 2 75
1431949 FL learningBlock4 10825 FLdep NA NA audio-keyboard-response 337 NA 14 1 25
1431949 FL learningBlock4 21025 FLbim NA NA audio-keyboard-response 340 NA 14 2 25
1431949 FL learningBlock4 32575 FLtob NA NA audio-keyboard-response 343 NA 14 3 75
1431949 FL learningBlock4 10325 FLdep NA NA audio-keyboard-response 346 NA 14 1 25
1431949 FL learningBlock4 30575 FLtob NA NA audio-keyboard-response 349 NA 14 3 75
1431949 FL learningBlock4 11675 FLdep NA NA audio-keyboard-response 352 NA 14 1 75
1431949 FL learningBlock4 31675 FLtob NA NA audio-keyboard-response 355 NA 14 3 75
1431949 FL learningBlock4 32225 FLtob NA NA audio-keyboard-response 358 NA 14 3 25
1431949 FL learningBlock4 31575 FLtob NA NA audio-keyboard-response 361 NA 14 3 75
1431949 FL learningBlock4 22025 FLbim NA NA audio-keyboard-response 364 NA 14 2 25
1431949 FL learningBlock4 31375 FLtob NA NA audio-keyboard-response 367 NA 14 3 75
1431949 FL learningBlock4 32325 FLtob NA NA audio-keyboard-response 370 NA 14 3 25
1431949 FL learningBlock4 22975 FLbim NA NA audio-keyboard-response 373 NA 14 2 75
1431949 FL learningBlock4 10175 FLdep NA NA audio-keyboard-response 376 NA 14 1 75
1431949 FL learningBlock4 20375 FLbim NA NA audio-keyboard-response 379 NA 14 2 75
1431949 FL learningBlock4 20475 FLbim NA NA audio-keyboard-response 382 NA 14 2 75
1431949 FL learningBlock4 32275 FLtob NA NA audio-keyboard-response 385 NA 14 3 75
1431949 FL learningBlock4 30275 FLtob NA NA audio-keyboard-response 388 NA 14 3 75
1431949 FL learningBlock4 11825 FLdep NA NA audio-keyboard-response 391 NA 14 1 25
1431949 FL learningBlock4 10375 FLdep NA NA audio-keyboard-response 394 NA 14 1 75
1431949 FL learningBlock4 23275 FLbim NA NA audio-keyboard-response 397 NA 14 2 75
1431944 FL learningBlock1 30375 FLtob NA NA audio-keyboard-response 22 NA 14 3 75
1431944 FL learningBlock1 20675 FLbim NA NA audio-keyboard-response 25 NA 14 2 75
1431944 FL learningBlock1 22275 FLbim NA NA audio-keyboard-response 28 NA 14 2 75
1431944 FL learningBlock1 11425 FLdep NA NA audio-keyboard-response 31 NA 14 1 25
1431944 FL learningBlock1 31975 FLtob NA NA audio-keyboard-response 34 NA 14 3 75
1431944 FL learningBlock1 21875 FLbim NA NA audio-keyboard-response 37 NA 14 2 75
1431944 FL learningBlock1 30175 FLtob NA NA audio-keyboard-response 40 NA 14 3 75
1431944 FL learningBlock1 22675 FLbim NA NA audio-keyboard-response 43 NA 14 2 75
1431944 FL learningBlock1 32675 FLtob NA NA audio-keyboard-response 46 NA 14 3 75
1431944 FL learningBlock1 20975 FLbim NA NA audio-keyboard-response 49 NA 14 2 75
1431944 FL learningBlock1 30975 FLtob NA NA audio-keyboard-response 52 NA 14 3 75
1431944 FL learningBlock1 21675 FLbim NA NA audio-keyboard-response 55 NA 14 2 75
1431944 FL learningBlock1 21725 FLbim NA NA audio-keyboard-response 58 NA 14 2 25
1431944 FL learningBlock1 31225 FLtob NA NA audio-keyboard-response 61 NA 14 3 25
1431944 FL learningBlock1 23375 FLbim NA NA audio-keyboard-response 64 NA 14 2 75
1431944 FL learningBlock1 11175 FLdep NA NA audio-keyboard-response 67 NA 14 1 75
1431944 FL learningBlock1 31825 FLtob NA NA audio-keyboard-response 70 NA 14 3 25
1431944 FL learningBlock1 13275 FLdep NA NA audio-keyboard-response 73 NA 14 1 75
1431944 FL learningBlock1 32525 FLtob NA NA audio-keyboard-response 76 NA 14 3 25
1431944 FL learningBlock1 33075 FLtob NA NA audio-keyboard-response 79 NA 14 3 75
1431944 FL learningBlock1 21575 FLbim NA NA audio-keyboard-response 82 NA 14 2 75
1431944 FL learningBlock1 32075 FLtob NA NA audio-keyboard-response 85 NA 14 3 75
1431944 FL learningBlock1 21525 FLbim NA NA audio-keyboard-response 88 NA 14 2 25
1431944 FL learningBlock1 20125 FLbim NA NA audio-keyboard-response 91 NA 14 2 25
1431944 FL learningBlock1 20825 FLbim NA NA audio-keyboard-response 94 NA 14 2 25
1431944 FL learningBlock1 11675 FLdep NA NA audio-keyboard-response 97 NA 14 1 75
1431944 FL learningBlock1 11525 FLdep NA NA audio-keyboard-response 100 NA 14 1 25
1431944 FL learningBlock1 22875 FLbim NA NA audio-keyboard-response 103 NA 14 2 75
1431944 FL learningBlock1 10525 FLdep NA NA audio-keyboard-response 106 NA 14 1 25
1431944 FL learningBlock1 32875 FLtob NA NA audio-keyboard-response 109 NA 14 3 75
1431944 FL learningBlock1 12775 FLdep NA NA audio-keyboard-response 112 NA 14 1 75
1431944 FL learningBlock1 12975 FLdep NA NA audio-keyboard-response 115 NA 14 1 75
1431944 FL learningBlock1 20675 FLbim NA NA audio-keyboard-response 118 NA 14 2 75
1431944 FL learningBlock1 31225 FLtob NA NA audio-keyboard-response 121 NA 14 3 25
1431944 FL learningBlock1 11175 FLdep NA NA audio-keyboard-response 124 NA 14 1 75
1431944 FL learningBlock1 31475 FLtob NA NA audio-keyboard-response 127 NA 14 3 75
1431944 FL learningBlock1 10675 FLdep NA NA audio-keyboard-response 130 NA 14 1 75
1431944 FL learningBlock1 20575 FLbim NA NA audio-keyboard-response 133 NA 14 2 75
1431944 FL learningBlock1 11875 FLdep NA NA audio-keyboard-response 136 NA 14 1 75
1431944 FL learningBlock1 20825 FLbim NA NA audio-keyboard-response 139 NA 14 2 25
1431944 FL learningBlock1 21725 FLbim NA NA audio-keyboard-response 142 NA 14 2 25
1431944 FL learningBlock1 31825 FLtob NA NA audio-keyboard-response 145 NA 14 3 25
1431944 FL learningBlock1 10775 FLdep NA NA audio-keyboard-response 148 NA 14 1 75
1431944 FL learningBlock1 31675 FLtob NA NA audio-keyboard-response 151 NA 14 3 75
1431944 FL learningBlock1 13175 FLdep NA NA audio-keyboard-response 154 NA 14 1 75
1431944 FL learningBlock2 30225 FLtob NA NA audio-keyboard-response 163 NA 14 3 25
1431944 FL learningBlock2 22275 FLbim NA NA audio-keyboard-response 166 NA 14 2 75
1431944 FL learningBlock2 11525 FLdep NA NA audio-keyboard-response 169 NA 14 1 25
1431944 FL learningBlock2 32975 FLtob NA NA audio-keyboard-response 172 NA 14 3 75
1431944 FL learningBlock2 20125 FLbim NA NA audio-keyboard-response 175 NA 14 2 25
1431944 FL learningBlock2 11775 FLdep NA NA audio-keyboard-response 178 NA 14 1 75
1431944 FL learningBlock2 33075 FLtob NA NA audio-keyboard-response 181 NA 14 3 75
1431944 FL learningBlock2 31975 FLtob NA NA audio-keyboard-response 184 NA 14 3 75
1431944 FL learningBlock2 30725 FLtob NA NA audio-keyboard-response 187 NA 14 3 25
1431944 FL learningBlock2 11425 FLdep NA NA audio-keyboard-response 190 NA 14 1 25
1431944 FL learningBlock2 23275 FLbim NA NA audio-keyboard-response 193 NA 14 2 75
1431944 FL learningBlock2 10775 FLdep NA NA audio-keyboard-response 196 NA 14 1 75
1431944 FL learningBlock2 21875 FLbim NA NA audio-keyboard-response 199 NA 14 2 75
1431944 FL learningBlock2 12175 FLdep NA NA audio-keyboard-response 202 NA 14 1 75
1431944 FL learningBlock2 10825 FLdep NA NA audio-keyboard-response 205 NA 14 1 25
1431944 FL learningBlock2 32525 FLtob NA NA audio-keyboard-response 208 NA 14 3 25
1431944 FL learningBlock2 12875 FLdep NA NA audio-keyboard-response 211 NA 14 1 75
1431944 FL learningBlock2 20275 FLbim NA NA audio-keyboard-response 214 NA 14 2 75
1431944 FL learningBlock2 12375 FLdep NA NA audio-keyboard-response 217 NA 14 1 75
1431944 FL learningBlock2 20975 FLbim NA NA audio-keyboard-response 220 NA 14 2 75
1431944 FL learningBlock2 30975 FLtob NA NA audio-keyboard-response 223 NA 14 3 75
1431944 FL learningBlock2 10675 FLdep NA NA audio-keyboard-response 226 NA 14 1 75
1431944 FL learningBlock2 30875 FLtob NA NA audio-keyboard-response 229 NA 14 3 75
1431944 FL learningBlock2 32075 FLtob NA NA audio-keyboard-response 232 NA 14 3 75
1431944 FL learningBlock2 11475 FLdep NA NA audio-keyboard-response 235 NA 14 1 75
1431944 FL learningBlock2 32975 FLtob NA NA audio-keyboard-response 238 NA 14 3 75
1431944 FL learningBlock2 20575 FLbim NA NA audio-keyboard-response 241 NA 14 2 75
1431944 FL learningBlock2 11475 FLdep NA NA audio-keyboard-response 244 NA 14 1 75
1431944 FL learningBlock2 11875 FLdep NA NA audio-keyboard-response 247 NA 14 1 75
1431944 FL learningBlock3 20375 FLbim NA NA audio-keyboard-response 256 NA 14 2 75
1431944 FL learningBlock3 30725 FLtob NA NA audio-keyboard-response 259 NA 14 3 25
1431944 FL learningBlock3 23475 FLbim NA NA audio-keyboard-response 262 NA 14 2 75
1431944 FL learningBlock3 12375 FLdep NA NA audio-keyboard-response 265 NA 14 1 75
1431944 FL learningBlock3 11625 FLdep NA NA audio-keyboard-response 268 NA 14 1 25
1431944 FL learningBlock3 32875 FLtob NA NA audio-keyboard-response 271 NA 14 3 75
1431944 FL learningBlock3 21575 FLbim NA NA audio-keyboard-response 274 NA 14 2 75
1431944 FL learningBlock3 12875 FLdep NA NA audio-keyboard-response 277 NA 14 1 75
1431944 FL learningBlock3 20425 FLbim NA NA audio-keyboard-response 280 NA 14 2 25
1431944 FL learningBlock3 20425 FLbim NA NA audio-keyboard-response 283 NA 14 2 25
1431944 FL learningBlock3 13375 FLdep NA NA audio-keyboard-response 286 NA 14 1 75
1431944 FL learningBlock3 23475 FLbim NA NA audio-keyboard-response 289 NA 14 2 75
1431944 FL learningBlock3 30225 FLtob NA NA audio-keyboard-response 292 NA 14 3 25
1431944 FL learningBlock3 12175 FLdep NA NA audio-keyboard-response 295 NA 14 1 75
1431944 FL learningBlock3 32275 FLtob NA NA audio-keyboard-response 298 NA 14 3 75
1431944 FL learningBlock3 10525 FLdep NA NA audio-keyboard-response 301 NA 14 1 25
1431944 FL learningBlock3 21525 FLbim NA NA audio-keyboard-response 304 NA 14 2 25
1431944 FL learningBlock3 23175 FLbim NA NA audio-keyboard-response 307 NA 14 2 75
1431944 FL learningBlock3 30875 FLtob NA NA audio-keyboard-response 310 NA 14 3 75
1431944 FL learningBlock3 10825 FLdep NA NA audio-keyboard-response 313 NA 14 1 25
1431944 FL learningBlock3 12775 FLdep NA NA audio-keyboard-response 316 NA 14 1 75
1431944 FL learningBlock4 13375 FLdep NA NA audio-keyboard-response 325 NA 14 1 75
1431944 FL learningBlock4 30375 FLtob NA NA audio-keyboard-response 328 NA 14 3 75
1431944 FL learningBlock4 20275 FLbim NA NA audio-keyboard-response 331 NA 14 2 75
1431944 FL learningBlock4 13275 FLdep NA NA audio-keyboard-response 334 NA 14 1 75
1431944 FL learningBlock4 23175 FLbim NA NA audio-keyboard-response 337 NA 14 2 75
1431944 FL learningBlock4 23375 FLbim NA NA audio-keyboard-response 340 NA 14 2 75
1431944 FL learningBlock4 21675 FLbim NA NA audio-keyboard-response 343 NA 14 2 75
1431944 FL learningBlock4 11625 FLdep NA NA audio-keyboard-response 346 NA 14 1 25
1431944 FL learningBlock4 30175 FLtob NA NA audio-keyboard-response 349 NA 14 3 75
1431944 FL learningBlock4 31675 FLtob NA NA audio-keyboard-response 352 NA 14 3 75
1431944 FL learningBlock4 32475 FLtob NA NA audio-keyboard-response 355 NA 14 3 75
1431944 FL learningBlock4 22875 FLbim NA NA audio-keyboard-response 358 NA 14 2 75
1431944 FL learningBlock4 11775 FLdep NA NA audio-keyboard-response 361 NA 14 1 75
1431944 FL learningBlock4 33275 FLtob NA NA audio-keyboard-response 364 NA 14 3 75
1431944 FL learningBlock4 31475 FLtob NA NA audio-keyboard-response 367 NA 14 3 75
1431944 FL learningBlock4 11675 FLdep NA NA audio-keyboard-response 370 NA 14 1 75
1431944 FL learningBlock4 22675 FLbim NA NA audio-keyboard-response 373 NA 14 2 75
1431944 FL learningBlock4 33275 FLtob NA NA audio-keyboard-response 376 NA 14 3 75
1431944 FL learningBlock4 20375 FLbim NA NA audio-keyboard-response 379 NA 14 2 75
1431944 FL learningBlock4 32275 FLtob NA NA audio-keyboard-response 382 NA 14 3 75
1431944 FL learningBlock4 13175 FLdep NA NA audio-keyboard-response 385 NA 14 1 75
1431944 FL learningBlock4 12975 FLdep NA NA audio-keyboard-response 388 NA 14 1 75
1431944 FL learningBlock4 32675 FLtob NA NA audio-keyboard-response 391 NA 14 3 75
1431944 FL learningBlock4 23275 FLbim NA NA audio-keyboard-response 394 NA 14 2 75
1431944 FL learningBlock4 32475 FLtob NA NA audio-keyboard-response 397 NA 14 3 75
1431953 FL learningBlock1 21475 FLbim NA NA audio-keyboard-response 22 NA 14 2 75
1431953 FL learningBlock1 23175 FLbim NA NA audio-keyboard-response 25 NA 14 2 75
1431953 FL learningBlock1 32875 FLtob NA NA audio-keyboard-response 28 NA 14 3 75
1431953 FL learningBlock1 10775 FLdep NA NA audio-keyboard-response 31 NA 14 1 75
1431953 FL learningBlock1 30575 FLtob NA NA audio-keyboard-response 34 NA 14 3 75
1431953 FL learningBlock1 30175 FLtob NA NA audio-keyboard-response 37 NA 14 3 75
1431953 FL learningBlock1 31875 FLtob NA NA audio-keyboard-response 40 NA 14 3 75
1431953 FL learningBlock1 21225 FLbim NA NA audio-keyboard-response 43 NA 14 2 25
1431953 FL learningBlock1 21825 FLbim NA NA audio-keyboard-response 46 NA 14 2 25
1431953 FL learningBlock1 30825 FLtob NA NA audio-keyboard-response 49 NA 14 3 25
1431953 FL learningBlock1 30975 FLtob NA NA audio-keyboard-response 52 NA 14 3 75
1431953 FL learningBlock1 23175 FLbim NA NA audio-keyboard-response 55 NA 14 2 75
1431953 FL learningBlock1 21875 FLbim NA NA audio-keyboard-response 58 NA 14 2 75
1431953 FL learningBlock1 10875 FLdep NA NA audio-keyboard-response 61 NA 14 1 75
1431953 FL learningBlock1 11375 FLdep NA NA audio-keyboard-response 64 NA 14 1 75
1431953 FL learningBlock1 12175 FLdep NA NA audio-keyboard-response 67 NA 14 1 75
1431953 FL learningBlock1 32175 FLtob NA NA audio-keyboard-response 70 NA 14 3 75
1431953 FL learningBlock1 31425 FLtob NA NA audio-keyboard-response 73 NA 14 3 25
1431953 FL learningBlock1 12225 FLdep NA NA audio-keyboard-response 76 NA 14 1 25
1431953 FL learningBlock1 10375 FLdep NA NA audio-keyboard-response 79 NA 14 1 75
1431953 FL learningBlock1 22375 FLbim NA NA audio-keyboard-response 82 NA 14 2 75
1431953 FL learningBlock1 21175 FLbim NA NA audio-keyboard-response 85 NA 14 2 75
1431953 FL learningBlock1 11875 FLdep NA NA audio-keyboard-response 88 NA 14 1 75
1431953 FL learningBlock1 12075 FLdep NA NA audio-keyboard-response 91 NA 14 1 75
1431953 FL learningBlock1 22475 FLbim NA NA audio-keyboard-response 94 NA 14 2 75
1431953 FL learningBlock1 11825 FLdep NA NA audio-keyboard-response 97 NA 14 1 25
1431953 FL learningBlock1 32675 FLtob NA NA audio-keyboard-response 100 NA 14 3 75
1431953 FL learningBlock1 21675 FLbim NA NA audio-keyboard-response 103 NA 14 2 75
1431953 FL learningBlock1 12225 FLdep NA NA audio-keyboard-response 106 NA 14 1 25
1431953 FL learningBlock1 12375 FLdep NA NA audio-keyboard-response 109 NA 14 1 75
1431953 FL learningBlock1 33075 FLtob NA NA audio-keyboard-response 112 NA 14 3 75
1431953 FL learningBlock1 11875 FLdep NA NA audio-keyboard-response 115 NA 14 1 75
1431953 FL learningBlock1 11375 FLdep NA NA audio-keyboard-response 118 NA 14 1 75
1431953 FL learningBlock1 31975 FLtob NA NA audio-keyboard-response 121 NA 14 3 75
1431953 FL learningBlock1 23475 FLbim NA NA audio-keyboard-response 124 NA 14 2 75
1431953 FL learningBlock1 22675 FLbim NA NA audio-keyboard-response 127 NA 14 2 75
1431953 FL learningBlock1 10175 FLdep NA NA audio-keyboard-response 130 NA 14 1 75
1431953 FL learningBlock2 21125 FLbim NA NA audio-keyboard-response 139 NA 14 2 25
1431953 FL learningBlock2 30775 FLtob NA NA audio-keyboard-response 142 NA 14 3 75
1431953 FL learningBlock2 32475 FLtob NA NA audio-keyboard-response 145 NA 14 3 75
1431953 FL learningBlock2 12025 FLdep NA NA audio-keyboard-response 148 NA 14 1 25
1431953 FL learningBlock2 21125 FLbim NA NA audio-keyboard-response 151 NA 14 2 25
1431953 FL learningBlock2 12125 FLdep NA NA audio-keyboard-response 154 NA 14 1 25
1431953 FL learningBlock2 10875 FLdep NA NA audio-keyboard-response 157 NA 14 1 75
1431953 FL learningBlock2 33375 FLtob NA NA audio-keyboard-response 160 NA 14 3 75
1431953 FL learningBlock2 21825 FLbim NA NA audio-keyboard-response 163 NA 14 2 25
1431953 FL learningBlock2 31775 FLtob NA NA audio-keyboard-response 166 NA 14 3 75
1431953 FL learningBlock2 32025 FLtob NA NA audio-keyboard-response 169 NA 14 3 25
1431953 FL learningBlock2 21175 FLbim NA NA audio-keyboard-response 172 NA 14 2 75
1431953 FL learningBlock2 30975 FLtob NA NA audio-keyboard-response 175 NA 14 3 75
1431953 FL learningBlock2 10375 FLdep NA NA audio-keyboard-response 178 NA 14 1 75
1431953 FL learningBlock2 21375 FLbim NA NA audio-keyboard-response 181 NA 14 2 75
1431953 FL learningBlock2 12075 FLdep NA NA audio-keyboard-response 184 NA 14 1 75
1431953 FL learningBlock2 22775 FLbim NA NA audio-keyboard-response 187 NA 14 2 75
1431953 FL learningBlock2 33275 FLtob NA NA audio-keyboard-response 190 NA 14 3 75
1431953 FL learningBlock2 20375 FLbim NA NA audio-keyboard-response 193 NA 14 2 75
1431953 FL learningBlock2 13475 FLdep NA NA audio-keyboard-response 196 NA 14 1 75
1431953 FL learningBlock2 23575 FLbim NA NA audio-keyboard-response 199 NA 14 2 75
1431953 FL learningBlock2 21375 FLbim NA NA audio-keyboard-response 202 NA 14 2 75
1431953 FL learningBlock2 30575 FLtob NA NA audio-keyboard-response 205 NA 14 3 75
1431953 FL learningBlock2 32875 FLtob NA NA audio-keyboard-response 208 NA 14 3 75
1431953 FL learningBlock2 11175 FLdep NA NA audio-keyboard-response 211 NA 14 1 75
1431953 FL learningBlock2 13375 FLdep NA NA audio-keyboard-response 214 NA 14 1 75
1431953 FL learningBlock3 12275 FLdep NA NA audio-keyboard-response 223 NA 14 1 75
1431953 FL learningBlock3 33075 FLtob NA NA audio-keyboard-response 226 NA 14 3 75
1431953 FL learningBlock3 22675 FLbim NA NA audio-keyboard-response 229 NA 14 2 75
1431953 FL learningBlock3 22375 FLbim NA NA audio-keyboard-response 232 NA 14 2 75
1431953 FL learningBlock3 11775 FLdep NA NA audio-keyboard-response 235 NA 14 1 75
1431953 FL learningBlock3 21675 FLbim NA NA audio-keyboard-response 238 NA 14 2 75
1431953 FL learningBlock3 20725 FLbim NA NA audio-keyboard-response 241 NA 14 2 25
1431953 FL learningBlock3 13375 FLdep NA NA audio-keyboard-response 244 NA 14 1 75
1431953 FL learningBlock3 31775 FLtob NA NA audio-keyboard-response 247 NA 14 3 75
1431953 FL learningBlock3 23575 FLbim NA NA audio-keyboard-response 250 NA 14 2 75
1431953 FL learningBlock3 12475 FLdep NA NA audio-keyboard-response 253 NA 14 1 75
1431953 FL learningBlock3 20675 FLbim NA NA audio-keyboard-response 256 NA 14 2 75
1431953 FL learningBlock3 20375 FLbim NA NA audio-keyboard-response 259 NA 14 2 75
1431953 FL learningBlock3 11775 FLdep NA NA audio-keyboard-response 262 NA 14 1 75
1431953 FL learningBlock3 31325 FLtob NA NA audio-keyboard-response 265 NA 14 3 25
1431953 FL learningBlock3 32275 FLtob NA NA audio-keyboard-response 268 NA 14 3 75
1431953 FL learningBlock3 21875 FLbim NA NA audio-keyboard-response 271 NA 14 2 75
1431953 FL learningBlock3 30175 FLtob NA NA audio-keyboard-response 274 NA 14 3 75
1431953 FL learningBlock3 12375 FLdep NA NA audio-keyboard-response 277 NA 14 1 75
1431953 FL learningBlock3 32275 FLtob NA NA audio-keyboard-response 280 NA 14 3 75
1431953 FL learningBlock3 32675 FLtob NA NA audio-keyboard-response 283 NA 14 3 75
1431953 FL learningBlock3 13475 FLdep NA NA audio-keyboard-response 286 NA 14 1 75
1431953 FL learningBlock3 31425 FLtob NA NA audio-keyboard-response 289 NA 14 3 25
1431953 FL learningBlock3 11625 FLdep NA NA audio-keyboard-response 292 NA 14 1 25
1431953 FL learningBlock3 21475 FLbim NA NA audio-keyboard-response 295 NA 14 2 75
1431953 FL learningBlock3 32175 FLtob NA NA audio-keyboard-response 298 NA 14 3 75
1431953 FL learningBlock3 31975 FLtob NA NA audio-keyboard-response 301 NA 14 3 75
1431953 FL learningBlock3 11625 FLdep NA NA audio-keyboard-response 304 NA 14 1 25
1431953 FL learningBlock3 31925 FLtob NA NA audio-keyboard-response 307 NA 14 3 25
1431953 FL learningBlock4 12475 FLdep NA NA audio-keyboard-response 316 NA 14 1 75
1431953 FL learningBlock4 33275 FLtob NA NA audio-keyboard-response 319 NA 14 3 75
1431953 FL learningBlock4 22775 FLbim NA NA audio-keyboard-response 322 NA 14 2 75
1431953 FL learningBlock4 11175 FLdep NA NA audio-keyboard-response 325 NA 14 1 75
1431953 FL learningBlock4 12025 FLdep NA NA audio-keyboard-response 328 NA 14 1 25
1431953 FL learningBlock4 12175 FLdep NA NA audio-keyboard-response 331 NA 14 1 75
1431953 FL learningBlock4 21225 FLbim NA NA audio-keyboard-response 334 NA 14 2 25
1431953 FL learningBlock4 22575 FLbim NA NA audio-keyboard-response 337 NA 14 2 75
1431953 FL learningBlock4 33375 FLtob NA NA audio-keyboard-response 340 NA 14 3 75
1431953 FL learningBlock4 11825 FLdep NA NA audio-keyboard-response 343 NA 14 1 25
1431953 FL learningBlock4 12275 FLdep NA NA audio-keyboard-response 346 NA 14 1 75
1431953 FL learningBlock4 20675 FLbim NA NA audio-keyboard-response 349 NA 14 2 75
1431953 FL learningBlock4 30775 FLtob NA NA audio-keyboard-response 352 NA 14 3 75
1431953 FL learningBlock4 30825 FLtob NA NA audio-keyboard-response 355 NA 14 3 25
1431953 FL learningBlock4 31325 FLtob NA NA audio-keyboard-response 358 NA 14 3 25
1431953 FL learningBlock4 10775 FLdep NA NA audio-keyboard-response 361 NA 14 1 75
1431953 FL learningBlock4 32475 FLtob NA NA audio-keyboard-response 364 NA 14 3 75
1431953 FL learningBlock4 10175 FLdep NA NA audio-keyboard-response 367 NA 14 1 75
1431953 FL learningBlock4 20725 FLbim NA NA audio-keyboard-response 370 NA 14 2 25
1431953 FL learningBlock4 31875 FLtob NA NA audio-keyboard-response 373 NA 14 3 75
1431953 FL learningBlock4 22575 FLbim NA NA audio-keyboard-response 376 NA 14 2 75
1431953 FL learningBlock4 22475 FLbim NA NA audio-keyboard-response 379 NA 14 2 75
1431953 FL learningBlock4 20525 FLbim NA NA audio-keyboard-response 382 NA 14 2 25
1431953 FL learningBlock4 31925 FLtob NA NA audio-keyboard-response 385 NA 14 3 25
1431953 FL learningBlock4 32025 FLtob NA NA audio-keyboard-response 388 NA 14 3 25
1431953 FL learningBlock4 20525 FLbim NA NA audio-keyboard-response 391 NA 14 2 25
1431953 FL learningBlock4 23475 FLbim NA NA audio-keyboard-response 394 NA 14 2 75
1431953 FL learningBlock4 12125 FLdep NA NA audio-keyboard-response 397 NA 14 1 25
1431958 FL learningBlock1 13275 FLdep NA NA audio-keyboard-response 22 NA 14 1 75
1431958 FL learningBlock1 30675 FLtob NA NA audio-keyboard-response 25 NA 14 3 75
1431958 FL learningBlock1 10425 FLdep NA NA audio-keyboard-response 28 NA 14 1 25
1431958 FL learningBlock1 22775 FLbim NA NA audio-keyboard-response 31 NA 14 2 75
1431958 FL learningBlock1 11375 FLdep NA NA audio-keyboard-response 34 NA 14 1 75
1431958 FL learningBlock1 11575 FLdep NA NA audio-keyboard-response 37 NA 14 1 75
1431958 FL learningBlock1 33075 FLtob NA NA audio-keyboard-response 40 NA 14 3 75
1431958 FL learningBlock1 22475 FLbim NA NA audio-keyboard-response 43 NA 14 2 75
1431958 FL learningBlock1 31875 FLtob NA NA audio-keyboard-response 46 NA 14 3 75
1431958 FL learningBlock1 12425 FLdep NA NA audio-keyboard-response 49 NA 14 1 25
1431958 FL learningBlock1 23575 FLbim NA NA audio-keyboard-response 52 NA 14 2 75
1431958 FL learningBlock1 32875 FLtob NA NA audio-keyboard-response 55 NA 14 3 75
1431958 FL learningBlock1 12575 FLdep NA NA audio-keyboard-response 58 NA 14 1 75
1431958 FL learningBlock1 12375 FLdep NA NA audio-keyboard-response 61 NA 14 1 75
1431958 FL learningBlock1 12875 FLdep NA NA audio-keyboard-response 64 NA 14 1 75
1431958 FL learningBlock1 11475 FLdep NA NA audio-keyboard-response 67 NA 14 1 75
1431958 FL learningBlock1 30475 FLtob NA NA audio-keyboard-response 70 NA 14 3 75
1431958 FL learningBlock1 33175 FLtob NA NA audio-keyboard-response 73 NA 14 3 75
1431958 FL learningBlock1 20725 FLbim NA NA audio-keyboard-response 76 NA 14 2 25
1431958 FL learningBlock1 13375 FLdep NA NA audio-keyboard-response 79 NA 14 1 75
1431958 FL learningBlock1 20475 FLbim NA NA audio-keyboard-response 82 NA 14 2 75
1431958 FL learningBlock1 33375 FLtob NA NA audio-keyboard-response 85 NA 14 3 75
1431958 FL learningBlock2 10275 FLdep NA NA audio-keyboard-response 94 NA 14 1 75
1431958 FL learningBlock2 22075 FLbim NA NA audio-keyboard-response 97 NA 14 2 75
1431958 FL learningBlock2 31375 FLtob NA NA audio-keyboard-response 100 NA 14 3 75
1431958 FL learningBlock2 22875 FLbim NA NA audio-keyboard-response 103 NA 14 2 75
1431958 FL learningBlock2 12875 FLdep NA NA audio-keyboard-response 106 NA 14 1 75
1431958 FL learningBlock2 31975 FLtob NA NA audio-keyboard-response 109 NA 14 3 75
1431958 FL learningBlock2 13275 FLdep NA NA audio-keyboard-response 112 NA 14 1 75
1431958 FL learningBlock2 31075 FLtob NA NA audio-keyboard-response 115 NA 14 3 75
1431958 FL learningBlock2 32875 FLtob NA NA audio-keyboard-response 118 NA 14 3 75
1431958 FL learningBlock2 10425 FLdep NA NA audio-keyboard-response 121 NA 14 1 25
1431958 FL learningBlock2 21075 FLbim NA NA audio-keyboard-response 124 NA 14 2 75
1431958 FL learningBlock2 20425 FLbim NA NA audio-keyboard-response 127 NA 14 2 25
1431958 FL learningBlock2 22775 FLbim NA NA audio-keyboard-response 130 NA 14 2 75
1431958 FL learningBlock2 31625 FLtob NA NA audio-keyboard-response 133 NA 14 3 25
1431958 FL learningBlock2 33475 FLtob NA NA audio-keyboard-response 136 NA 14 3 75
1431958 FL learningBlock2 11925 FLdep NA NA audio-keyboard-response 139 NA 14 1 25
1431958 FL learningBlock2 20575 FLbim NA NA audio-keyboard-response 142 NA 14 2 75
1431958 FL learningBlock2 20775 FLbim NA NA audio-keyboard-response 145 NA 14 2 75
1431958 FL learningBlock2 21625 FLbim NA NA audio-keyboard-response 148 NA 14 2 25
1431958 FL learningBlock2 20425 FLbim NA NA audio-keyboard-response 151 NA 14 2 25
1431958 FL learningBlock2 12375 FLdep NA NA audio-keyboard-response 154 NA 14 1 75
1431958 FL learningBlock2 11475 FLdep NA NA audio-keyboard-response 157 NA 14 1 75
1431958 FL learningBlock2 22275 FLbim NA NA audio-keyboard-response 160 NA 14 2 75
1431958 FL learningBlock2 12575 FLdep NA NA audio-keyboard-response 163 NA 14 1 75
1431958 FL learningBlock2 23375 FLbim NA NA audio-keyboard-response 166 NA 14 2 75
1431958 FL learningBlock2 20725 FLbim NA NA audio-keyboard-response 169 NA 14 2 25
1431958 FL learningBlock2 22275 FLbim NA NA audio-keyboard-response 172 NA 14 2 75
1431958 FL learningBlock2 11175 FLdep NA NA audio-keyboard-response 175 NA 14 1 75
1431958 FL learningBlock2 11925 FLdep NA NA audio-keyboard-response 178 NA 14 1 25
1431958 FL learningBlock2 30875 FLtob NA NA audio-keyboard-response 181 NA 14 3 75
1431958 FL learningBlock2 30475 FLtob NA NA audio-keyboard-response 184 NA 14 3 75
1431958 FL learningBlock3 10525 FLdep NA NA audio-keyboard-response 193 NA 14 1 25
1431958 FL learningBlock3 12275 FLdep NA NA audio-keyboard-response 196 NA 14 1 75
1431958 FL learningBlock3 23375 FLbim NA NA audio-keyboard-response 199 NA 14 2 75
1431958 FL learningBlock3 13375 FLdep NA NA audio-keyboard-response 202 NA 14 1 75
1431958 FL learningBlock3 10375 FLdep NA NA audio-keyboard-response 205 NA 14 1 75
1431958 FL learningBlock3 31625 FLtob NA NA audio-keyboard-response 208 NA 14 3 25
1431958 FL learningBlock3 20275 FLbim NA NA audio-keyboard-response 211 NA 14 2 75
1431958 FL learningBlock3 32225 FLtob NA NA audio-keyboard-response 214 NA 14 3 25
1431958 FL learningBlock3 21675 FLbim NA NA audio-keyboard-response 217 NA 14 2 75
1431958 FL learningBlock3 23575 FLbim NA NA audio-keyboard-response 220 NA 14 2 75
1431958 FL learningBlock3 22475 FLbim NA NA audio-keyboard-response 223 NA 14 2 75
1431958 FL learningBlock3 20575 FLbim NA NA audio-keyboard-response 226 NA 14 2 75
1431958 FL learningBlock3 10975 FLdep NA NA audio-keyboard-response 229 NA 14 1 75
1431958 FL learningBlock3 12125 FLdep NA NA audio-keyboard-response 232 NA 14 1 25
1431958 FL learningBlock3 21625 FLbim NA NA audio-keyboard-response 235 NA 14 2 25
1431958 FL learningBlock3 31275 FLtob NA NA audio-keyboard-response 238 NA 14 3 75
1431958 FL learningBlock3 33375 FLtob NA NA audio-keyboard-response 241 NA 14 3 75
1431958 FL learningBlock3 30625 FLtob NA NA audio-keyboard-response 244 NA 14 3 25
1431958 FL learningBlock3 31275 FLtob NA NA audio-keyboard-response 247 NA 14 3 75
1431958 FL learningBlock3 32775 FLtob NA NA audio-keyboard-response 250 NA 14 3 75
1431958 FL learningBlock3 11275 FLdep NA NA audio-keyboard-response 253 NA 14 1 75
1431958 FL learningBlock3 11175 FLdep NA NA audio-keyboard-response 256 NA 14 1 75
1431958 FL learningBlock3 30525 FLtob NA NA audio-keyboard-response 259 NA 14 3 25
1431958 FL learningBlock3 32225 FLtob NA NA audio-keyboard-response 262 NA 14 3 25
1431958 FL learningBlock3 20625 FLbim NA NA audio-keyboard-response 265 NA 14 2 25
1431958 FL learningBlock3 33175 FLtob NA NA audio-keyboard-response 268 NA 14 3 75
1431958 FL learningBlock3 20825 FLbim NA NA audio-keyboard-response 271 NA 14 2 25
1431958 FL learningBlock3 10775 FLdep NA NA audio-keyboard-response 274 NA 14 1 75
1431958 FL learningBlock3 20275 FLbim NA NA audio-keyboard-response 277 NA 14 2 75
1431958 FL learningBlock3 30875 FLtob NA NA audio-keyboard-response 280 NA 14 3 75
1431958 FL learningBlock3 22075 FLbim NA NA audio-keyboard-response 283 NA 14 2 75
1431958 FL learningBlock3 10375 FLdep NA NA audio-keyboard-response 286 NA 14 1 75
1431958 FL learningBlock3 21675 FLbim NA NA audio-keyboard-response 289 NA 14 2 75
1431958 FL learningBlock3 20625 FLbim NA NA audio-keyboard-response 292 NA 14 2 25
1431958 FL learningBlock3 10525 FLdep NA NA audio-keyboard-response 295 NA 14 1 25
1431958 FL learningBlock3 23275 FLbim NA NA audio-keyboard-response 298 NA 14 2 75
1431958 FL learningBlock3 12125 FLdep NA NA audio-keyboard-response 301 NA 14 1 25
1431958 FL learningBlock3 30625 FLtob NA NA audio-keyboard-response 304 NA 14 3 25
1431958 FL learningBlock4 22875 FLbim NA NA audio-keyboard-response 313 NA 14 2 75
1431958 FL learningBlock4 30975 FLtob NA NA audio-keyboard-response 316 NA 14 3 75
1431958 FL learningBlock4 12425 FLdep NA NA audio-keyboard-response 319 NA 14 1 25
1431958 FL learningBlock4 23275 FLbim NA NA audio-keyboard-response 322 NA 14 2 75
1431958 FL learningBlock4 11275 FLdep NA NA audio-keyboard-response 325 NA 14 1 75
1431958 FL learningBlock4 32775 FLtob NA NA audio-keyboard-response 328 NA 14 3 75
1431958 FL learningBlock4 31325 FLtob NA NA audio-keyboard-response 331 NA 14 3 25
1431958 FL learningBlock4 33475 FLtob NA NA audio-keyboard-response 334 NA 14 3 75
1431958 FL learningBlock4 20475 FLbim NA NA audio-keyboard-response 337 NA 14 2 75
1431958 FL learningBlock4 33075 FLtob NA NA audio-keyboard-response 340 NA 14 3 75
1431958 FL learningBlock4 30675 FLtob NA NA audio-keyboard-response 343 NA 14 3 75
1431958 FL learningBlock4 10975 FLdep NA NA audio-keyboard-response 346 NA 14 1 75
1431958 FL learningBlock4 10775 FLdep NA NA audio-keyboard-response 349 NA 14 1 75
1431958 FL learningBlock4 31875 FLtob NA NA audio-keyboard-response 352 NA 14 3 75
1431958 FL learningBlock4 11375 FLdep NA NA audio-keyboard-response 355 NA 14 1 75
1431958 FL learningBlock4 30525 FLtob NA NA audio-keyboard-response 358 NA 14 3 25
1431958 FL learningBlock4 12275 FLdep NA NA audio-keyboard-response 361 NA 14 1 75
1431958 FL learningBlock4 20775 FLbim NA NA audio-keyboard-response 364 NA 14 2 75
1431958 FL learningBlock4 31075 FLtob NA NA audio-keyboard-response 367 NA 14 3 75
1431958 FL learningBlock4 31975 FLtob NA NA audio-keyboard-response 370 NA 14 3 75
1431958 FL learningBlock4 31325 FLtob NA NA audio-keyboard-response 373 NA 14 3 25
1431958 FL learningBlock4 21075 FLbim NA NA audio-keyboard-response 376 NA 14 2 75
1431958 FL learningBlock4 11575 FLdep NA NA audio-keyboard-response 379 NA 14 1 75
1431958 FL learningBlock4 23075 FLbim NA NA audio-keyboard-response 382 NA 14 2 75
1431958 FL learningBlock4 30975 FLtob NA NA audio-keyboard-response 385 NA 14 3 75
1431958 FL learningBlock4 23075 FLbim NA NA audio-keyboard-response 388 NA 14 2 75
1431958 FL learningBlock4 20825 FLbim NA NA audio-keyboard-response 391 NA 14 2 25
1431958 FL learningBlock4 10275 FLdep NA NA audio-keyboard-response 394 NA 14 1 75
1431958 FL learningBlock4 31375 FLtob NA NA audio-keyboard-response 397 NA 14 3 75
1431965 FL learningBlock1 30975 FLtob NA NA audio-keyboard-response 22 NA 14 3 75
1431965 FL learningBlock1 12975 FLdep NA NA audio-keyboard-response 25 NA 14 1 75
1431965 FL learningBlock1 30675 FLtob NA NA audio-keyboard-response 28 NA 14 3 75
1431965 FL learningBlock1 21975 FLbim NA NA audio-keyboard-response 31 NA 14 2 75
1431965 FL learningBlock1 11225 FLdep NA NA audio-keyboard-response 34 NA 14 1 25
1431965 FL learningBlock1 13175 FLdep NA NA audio-keyboard-response 37 NA 14 1 75
1431965 FL learningBlock1 20675 FLbim NA NA audio-keyboard-response 40 NA 14 2 75
1431965 FL learningBlock1 10475 FLdep NA NA audio-keyboard-response 43 NA 14 1 75
1431965 FL learningBlock1 21625 FLbim NA NA audio-keyboard-response 46 NA 14 2 25
1431965 FL learningBlock1 11325 FLdep NA NA audio-keyboard-response 49 NA 14 1 25
1431965 FL learningBlock1 12425 FLdep NA NA audio-keyboard-response 52 NA 14 1 25
1431965 FL learningBlock1 31475 FLtob NA NA audio-keyboard-response 55 NA 14 3 75
1431965 FL learningBlock1 20775 FLbim NA NA audio-keyboard-response 58 NA 14 2 75
1431965 FL learningBlock1 32575 FLtob NA NA audio-keyboard-response 61 NA 14 3 75
1431965 FL learningBlock1 12875 FLdep NA NA audio-keyboard-response 64 NA 14 1 75
1431965 FL learningBlock1 30975 FLtob NA NA audio-keyboard-response 67 NA 14 3 75
1431965 FL learningBlock1 12075 FLdep NA NA audio-keyboard-response 70 NA 14 1 75
1431965 FL learningBlock1 31475 FLtob NA NA audio-keyboard-response 73 NA 14 3 75
1431965 FL learningBlock1 20675 FLbim NA NA audio-keyboard-response 76 NA 14 2 75
1431965 FL learningBlock1 20975 FLbim NA NA audio-keyboard-response 79 NA 14 2 75
1431965 FL learningBlock1 31225 FLtob NA NA audio-keyboard-response 82 NA 14 3 25
1431965 FL learningBlock1 21425 FLbim NA NA audio-keyboard-response 85 NA 14 2 25
1431965 FL learningBlock1 20175 FLbim NA NA audio-keyboard-response 88 NA 14 2 75
1431965 FL learningBlock1 21275 FLbim NA NA audio-keyboard-response 91 NA 14 2 75
1431965 FL learningBlock1 21425 FLbim NA NA audio-keyboard-response 94 NA 14 2 25
1431965 FL learningBlock1 11475 FLdep NA NA audio-keyboard-response 97 NA 14 1 75
1431965 FL learningBlock1 12375 FLdep NA NA audio-keyboard-response 100 NA 14 1 75
1431965 FL learningBlock1 21475 FLbim NA NA audio-keyboard-response 103 NA 14 2 75
1431965 FL learningBlock2 20175 FLbim NA NA audio-keyboard-response 112 NA 14 2 75
1431965 FL learningBlock2 10475 FLdep NA NA audio-keyboard-response 115 NA 14 1 75
1431965 FL learningBlock2 30175 FLtob NA NA audio-keyboard-response 118 NA 14 3 75
1431965 FL learningBlock2 23075 FLbim NA NA audio-keyboard-response 121 NA 14 2 75
1431965 FL learningBlock2 10825 FLdep NA NA audio-keyboard-response 124 NA 14 1 25
1431965 FL learningBlock2 31375 FLtob NA NA audio-keyboard-response 127 NA 14 3 75
1431965 FL learningBlock2 31575 FLtob NA NA audio-keyboard-response 130 NA 14 3 75
1431965 FL learningBlock2 20825 FLbim NA NA audio-keyboard-response 133 NA 14 2 25
1431965 FL learningBlock2 20775 FLbim NA NA audio-keyboard-response 136 NA 14 2 75
1431965 FL learningBlock2 30775 FLtob NA NA audio-keyboard-response 139 NA 14 3 75
1431965 FL learningBlock2 13475 FLdep NA NA audio-keyboard-response 142 NA 14 1 75
1431965 FL learningBlock2 12575 FLdep NA NA audio-keyboard-response 145 NA 14 1 75
1431965 FL learningBlock2 20125 FLbim NA NA audio-keyboard-response 148 NA 14 2 25
1431965 FL learningBlock2 11675 FLdep NA NA audio-keyboard-response 151 NA 14 1 75
1431965 FL learningBlock2 20125 FLbim NA NA audio-keyboard-response 154 NA 14 2 25
1431965 FL learningBlock2 12075 FLdep NA NA audio-keyboard-response 157 NA 14 1 75
1431965 FL learningBlock2 23375 FLbim NA NA audio-keyboard-response 160 NA 14 2 75
1431965 FL learningBlock2 10775 FLdep NA NA audio-keyboard-response 163 NA 14 1 75
1431965 FL learningBlock2 32675 FLtob NA NA audio-keyboard-response 166 NA 14 3 75
1431965 FL learningBlock2 32675 FLtob NA NA audio-keyboard-response 169 NA 14 3 75
1431965 FL learningBlock2 30775 FLtob NA NA audio-keyboard-response 172 NA 14 3 75
1431965 FL learningBlock2 31975 FLtob NA NA audio-keyboard-response 175 NA 14 3 75
1431965 FL learningBlock2 32225 FLtob NA NA audio-keyboard-response 178 NA 14 3 25
1431965 FL learningBlock2 11075 FLdep NA NA audio-keyboard-response 181 NA 14 1 75
1431965 FL learningBlock2 12425 FLdep NA NA audio-keyboard-response 184 NA 14 1 25
1431965 FL learningBlock2 21675 FLbim NA NA audio-keyboard-response 187 NA 14 2 75
1431965 FL learningBlock2 31975 FLtob NA NA audio-keyboard-response 190 NA 14 3 75
1431965 FL learningBlock2 20375 FLbim NA NA audio-keyboard-response 193 NA 14 2 75
1431965 FL learningBlock2 33375 FLtob NA NA audio-keyboard-response 196 NA 14 3 75
1431965 FL learningBlock2 21525 FLbim NA NA audio-keyboard-response 199 NA 14 2 25
1431965 FL learningBlock2 31825 FLtob NA NA audio-keyboard-response 202 NA 14 3 25
1431965 FL learningBlock2 31175 FLtob NA NA audio-keyboard-response 205 NA 14 3 75
1431965 FL learningBlock2 20825 FLbim NA NA audio-keyboard-response 208 NA 14 2 25
1431965 FL learningBlock2 13575 FLdep NA NA audio-keyboard-response 211 NA 14 1 75
1431965 FL learningBlock2 23375 FLbim NA NA audio-keyboard-response 214 NA 14 2 75
1431965 FL learningBlock2 32975 FLtob NA NA audio-keyboard-response 217 NA 14 3 75
1431965 FL learningBlock2 31825 FLtob NA NA audio-keyboard-response 220 NA 14 3 25
1431965 FL learningBlock3 22375 FLbim NA NA audio-keyboard-response 229 NA 14 2 75
1431965 FL learningBlock3 12975 FLdep NA NA audio-keyboard-response 232 NA 14 1 75
1431965 FL learningBlock3 23175 FLbim NA NA audio-keyboard-response 235 NA 14 2 75
1431965 FL learningBlock3 13575 FLdep NA NA audio-keyboard-response 238 NA 14 1 75
1431965 FL learningBlock3 21675 FLbim NA NA audio-keyboard-response 241 NA 14 2 75
1431965 FL learningBlock3 21275 FLbim NA NA audio-keyboard-response 244 NA 14 2 75
1431965 FL learningBlock3 31375 FLtob NA NA audio-keyboard-response 247 NA 14 3 75
1431965 FL learningBlock3 32575 FLtob NA NA audio-keyboard-response 250 NA 14 3 75
1431965 FL learningBlock3 32025 FLtob NA NA audio-keyboard-response 253 NA 14 3 25
1431965 FL learningBlock3 11775 FLdep NA NA audio-keyboard-response 256 NA 14 1 75
1431965 FL learningBlock3 11675 FLdep NA NA audio-keyboard-response 259 NA 14 1 75
1431965 FL learningBlock3 30675 FLtob NA NA audio-keyboard-response 262 NA 14 3 75
1431965 FL learningBlock3 12375 FLdep NA NA audio-keyboard-response 265 NA 14 1 75
1431965 FL learningBlock3 32025 FLtob NA NA audio-keyboard-response 268 NA 14 3 25
1431965 FL learningBlock3 11125 FLdep NA NA audio-keyboard-response 271 NA 14 1 25
1431965 FL learningBlock3 21475 FLbim NA NA audio-keyboard-response 274 NA 14 2 75
1431965 FL learningBlock3 11075 FLdep NA NA audio-keyboard-response 277 NA 14 1 75
1431965 FL learningBlock3 12475 FLdep NA NA audio-keyboard-response 280 NA 14 1 75
1431965 FL learningBlock3 31775 FLtob NA NA audio-keyboard-response 283 NA 14 3 75
1431965 FL learningBlock3 23175 FLbim NA NA audio-keyboard-response 286 NA 14 2 75
1431965 FL learningBlock3 11475 FLdep NA NA audio-keyboard-response 289 NA 14 1 75
1431965 FL learningBlock3 31225 FLtob NA NA audio-keyboard-response 292 NA 14 3 25
1431965 FL learningBlock3 30125 FLtob NA NA audio-keyboard-response 295 NA 14 3 25
1431965 FL learningBlock3 31575 FLtob NA NA audio-keyboard-response 298 NA 14 3 75
1431965 FL learningBlock3 31175 FLtob NA NA audio-keyboard-response 301 NA 14 3 75
1431965 FL learningBlock3 22375 FLbim NA NA audio-keyboard-response 304 NA 14 2 75
1431965 FL learningBlock4 23575 FLbim NA NA audio-keyboard-response 313 NA 14 2 75
1431965 FL learningBlock4 12475 FLdep NA NA audio-keyboard-response 316 NA 14 1 75
1431965 FL learningBlock4 12575 FLdep NA NA audio-keyboard-response 319 NA 14 1 75
1431965 FL learningBlock4 20975 FLbim NA NA audio-keyboard-response 322 NA 14 2 75
1431965 FL learningBlock4 23275 FLbim NA NA audio-keyboard-response 325 NA 14 2 75
1431965 FL learningBlock4 33375 FLtob NA NA audio-keyboard-response 328 NA 14 3 75
1431965 FL learningBlock4 11125 FLdep NA NA audio-keyboard-response 331 NA 14 1 25
1431965 FL learningBlock4 21975 FLbim NA NA audio-keyboard-response 334 NA 14 2 75
1431965 FL learningBlock4 21625 FLbim NA NA audio-keyboard-response 337 NA 14 2 25
1431965 FL learningBlock4 21525 FLbim NA NA audio-keyboard-response 340 NA 14 2 25
1431965 FL learningBlock4 11325 FLdep NA NA audio-keyboard-response 343 NA 14 1 25
1431965 FL learningBlock4 32975 FLtob NA NA audio-keyboard-response 346 NA 14 3 75
1431965 FL learningBlock4 13175 FLdep NA NA audio-keyboard-response 349 NA 14 1 75
1431965 FL learningBlock4 10825 FLdep NA NA audio-keyboard-response 352 NA 14 1 25
1431965 FL learningBlock4 30175 FLtob NA NA audio-keyboard-response 355 NA 14 3 75
1431965 FL learningBlock4 10775 FLdep NA NA audio-keyboard-response 358 NA 14 1 75
1431965 FL learningBlock4 13475 FLdep NA NA audio-keyboard-response 361 NA 14 1 75
1431965 FL learningBlock4 32875 FLtob NA NA audio-keyboard-response 364 NA 14 3 75
1431965 FL learningBlock4 30125 FLtob NA NA audio-keyboard-response 367 NA 14 3 25
1431965 FL learningBlock4 11775 FLdep NA NA audio-keyboard-response 370 NA 14 1 75
1431965 FL learningBlock4 12875 FLdep NA NA audio-keyboard-response 373 NA 14 1 75
1431965 FL learningBlock4 31775 FLtob NA NA audio-keyboard-response 376 NA 14 3 75
1431965 FL learningBlock4 32875 FLtob NA NA audio-keyboard-response 379 NA 14 3 75
1431965 FL learningBlock4 11225 FLdep NA NA audio-keyboard-response 382 NA 14 1 25
1431965 FL learningBlock4 32225 FLtob NA NA audio-keyboard-response 385 NA 14 3 25
1431965 FL learningBlock4 23075 FLbim NA NA audio-keyboard-response 388 NA 14 2 75
1431965 FL learningBlock4 23575 FLbim NA NA audio-keyboard-response 391 NA 14 2 75
1431965 FL learningBlock4 20375 FLbim NA NA audio-keyboard-response 394 NA 14 2 75
1431965 FL learningBlock4 23275 FLbim NA NA audio-keyboard-response 397 NA 14 2 75
1431946 FL learningBlock1 31675 FLtob NA NA audio-keyboard-response 22 NA 14 3 75
1431946 FL learningBlock1 11175 FLdep NA NA audio-keyboard-response 25 NA 14 1 75
1431946 FL learningBlock1 32675 FLtob NA NA audio-keyboard-response 28 NA 14 3 75
1431946 FL learningBlock1 33475 FLtob NA NA audio-keyboard-response 31 NA 14 3 75
1431946 FL learningBlock1 12475 FLdep NA NA audio-keyboard-response 34 NA 14 1 75
1431946 FL learningBlock1 21775 FLbim NA NA audio-keyboard-response 37 NA 14 2 75
1431946 FL learningBlock1 31275 FLtob NA NA audio-keyboard-response 40 NA 14 3 75
1431946 FL learningBlock1 31375 FLtob NA NA audio-keyboard-response 43 NA 14 3 75
1431946 FL learningBlock1 12175 FLdep NA NA audio-keyboard-response 46 NA 14 1 75
1431946 FL learningBlock1 23375 FLbim NA NA audio-keyboard-response 49 NA 14 2 75
1431946 FL learningBlock1 11875 FLdep NA NA audio-keyboard-response 52 NA 14 1 75
1431946 FL learningBlock1 10675 FLdep NA NA audio-keyboard-response 55 NA 14 1 75
1431946 FL learningBlock1 31775 FLtob NA NA audio-keyboard-response 58 NA 14 3 75
1431946 FL learningBlock1 11475 FLdep NA NA audio-keyboard-response 61 NA 14 1 75
1431946 FL learningBlock1 31375 FLtob NA NA audio-keyboard-response 64 NA 14 3 75
1431946 FL learningBlock1 30575 FLtob NA NA audio-keyboard-response 67 NA 14 3 75
1431946 FL learningBlock1 10275 FLdep NA NA audio-keyboard-response 70 NA 14 1 75
1431946 FL learningBlock1 21625 FLbim NA NA audio-keyboard-response 73 NA 14 2 25
1431946 FL learningBlock1 22425 FLbim NA NA audio-keyboard-response 76 NA 14 2 25
1431946 FL learningBlock1 10125 FLdep NA NA audio-keyboard-response 79 NA 14 1 25
1431946 FL learningBlock1 20125 FLbim NA NA audio-keyboard-response 82 NA 14 2 25
1431946 FL learningBlock1 21675 FLbim NA NA audio-keyboard-response 85 NA 14 2 75
1431946 FL learningBlock1 11875 FLdep NA NA audio-keyboard-response 88 NA 14 1 75
1431946 FL learningBlock1 22875 FLbim NA NA audio-keyboard-response 91 NA 14 2 75
1431946 FL learningBlock2 20825 FLbim NA NA audio-keyboard-response 100 NA 14 2 25
1431946 FL learningBlock2 11725 FLdep NA NA audio-keyboard-response 103 NA 14 1 25
1431946 FL learningBlock2 11475 FLdep NA NA audio-keyboard-response 106 NA 14 1 75
1431946 FL learningBlock2 11575 FLdep NA NA audio-keyboard-response 109 NA 14 1 75
1431946 FL learningBlock2 21775 FLbim NA NA audio-keyboard-response 112 NA 14 2 75
1431946 FL learningBlock2 31675 FLtob NA NA audio-keyboard-response 115 NA 14 3 75
1431946 FL learningBlock2 31825 FLtob NA NA audio-keyboard-response 118 NA 14 3 25
1431946 FL learningBlock2 22375 FLbim NA NA audio-keyboard-response 121 NA 14 2 75
1431946 FL learningBlock2 20125 FLbim NA NA audio-keyboard-response 124 NA 14 2 25
1431946 FL learningBlock2 30975 FLtob NA NA audio-keyboard-response 127 NA 14 3 75
1431946 FL learningBlock2 10375 FLdep NA NA audio-keyboard-response 130 NA 14 1 75
1431946 FL learningBlock2 30375 FLtob NA NA audio-keyboard-response 133 NA 14 3 75
1431946 FL learningBlock2 21075 FLbim NA NA audio-keyboard-response 136 NA 14 2 75
1431946 FL learningBlock2 11175 FLdep NA NA audio-keyboard-response 139 NA 14 1 75
1431946 FL learningBlock2 32775 FLtob NA NA audio-keyboard-response 142 NA 14 3 75
1431946 FL learningBlock2 21475 FLbim NA NA audio-keyboard-response 145 NA 14 2 75
1431946 FL learningBlock2 21475 FLbim NA NA audio-keyboard-response 148 NA 14 2 75
1431946 FL learningBlock2 30275 FLtob NA NA audio-keyboard-response 151 NA 14 3 75
1431946 FL learningBlock2 13275 FLdep NA NA audio-keyboard-response 154 NA 14 1 75
1431946 FL learningBlock2 21975 FLbim NA NA audio-keyboard-response 157 NA 14 2 75
1431946 FL learningBlock2 30575 FLtob NA NA audio-keyboard-response 160 NA 14 3 75
1431946 FL learningBlock2 30975 FLtob NA NA audio-keyboard-response 163 NA 14 3 75
1431946 FL learningBlock2 31275 FLtob NA NA audio-keyboard-response 166 NA 14 3 75
1431946 FL learningBlock2 22425 FLbim NA NA audio-keyboard-response 169 NA 14 2 25
1431946 FL learningBlock2 30275 FLtob NA NA audio-keyboard-response 172 NA 14 3 75
1431946 FL learningBlock3 30375 FLtob NA NA audio-keyboard-response 181 NA 14 3 75
1431946 FL learningBlock3 32675 FLtob NA NA audio-keyboard-response 184 NA 14 3 75
1431946 FL learningBlock3 30775 FLtob NA NA audio-keyboard-response 187 NA 14 3 75
1431946 FL learningBlock3 10125 FLdep NA NA audio-keyboard-response 190 NA 14 1 25
1431946 FL learningBlock3 11125 FLdep NA NA audio-keyboard-response 193 NA 14 1 25
1431946 FL learningBlock3 33275 FLtob NA NA audio-keyboard-response 196 NA 14 3 75
1431946 FL learningBlock3 30725 FLtob NA NA audio-keyboard-response 199 NA 14 3 25
1431946 FL learningBlock3 11125 FLdep NA NA audio-keyboard-response 202 NA 14 1 25
1431946 FL learningBlock3 21875 FLbim NA NA audio-keyboard-response 205 NA 14 2 75
1431946 FL learningBlock3 22975 FLbim NA NA audio-keyboard-response 208 NA 14 2 75
1431946 FL learningBlock3 11225 FLdep NA NA audio-keyboard-response 211 NA 14 1 25
1431946 FL learningBlock3 31225 FLtob NA NA audio-keyboard-response 214 NA 14 3 25
1431946 FL learningBlock3 22875 FLbim NA NA audio-keyboard-response 217 NA 14 2 75
1431946 FL learningBlock3 13275 FLdep NA NA audio-keyboard-response 220 NA 14 1 75
1431946 FL learningBlock3 11025 FLdep NA NA audio-keyboard-response 223 NA 14 1 25
1431946 FL learningBlock3 20275 FLbim NA NA audio-keyboard-response 226 NA 14 2 75
1431946 FL learningBlock3 13475 FLdep NA NA audio-keyboard-response 229 NA 14 1 75
1431946 FL learningBlock3 22575 FLbim NA NA audio-keyboard-response 232 NA 14 2 75
1431946 FL learningBlock3 31925 FLtob NA NA audio-keyboard-response 235 NA 14 3 25
1431946 FL learningBlock3 20225 FLbim NA NA audio-keyboard-response 238 NA 14 2 25
1431946 FL learningBlock3 21875 FLbim NA NA audio-keyboard-response 241 NA 14 2 75
1431946 FL learningBlock3 33475 FLtob NA NA audio-keyboard-response 244 NA 14 3 75
1431946 FL learningBlock3 10275 FLdep NA NA audio-keyboard-response 247 NA 14 1 75
1431946 FL learningBlock3 30775 FLtob NA NA audio-keyboard-response 250 NA 14 3 75
1431946 FL learningBlock3 22475 FLbim NA NA audio-keyboard-response 253 NA 14 2 75
1431946 FL learningBlock3 20225 FLbim NA NA audio-keyboard-response 256 NA 14 2 25
1431946 FL learningBlock3 21675 FLbim NA NA audio-keyboard-response 259 NA 14 2 75
1431946 FL learningBlock3 12975 FLdep NA NA audio-keyboard-response 262 NA 14 1 75
1431946 FL learningBlock3 20275 FLbim NA NA audio-keyboard-response 265 NA 14 2 75
1431946 FL learningBlock4 20475 FLbim NA NA audio-keyboard-response 274 NA 14 2 75
1431946 FL learningBlock4 30125 FLtob NA NA audio-keyboard-response 277 NA 14 3 25
1431946 FL learningBlock4 32775 FLtob NA NA audio-keyboard-response 280 NA 14 3 75
1431946 FL learningBlock4 12875 FLdep NA NA audio-keyboard-response 283 NA 14 1 75
1431946 FL learningBlock4 30475 FLtob NA NA audio-keyboard-response 286 NA 14 3 75
1431946 FL learningBlock4 31825 FLtob NA NA audio-keyboard-response 289 NA 14 3 25
1431946 FL learningBlock4 30125 FLtob NA NA audio-keyboard-response 292 NA 14 3 25
1431946 FL learningBlock4 22375 FLbim NA NA audio-keyboard-response 295 NA 14 2 75
1431946 FL learningBlock4 23375 FLbim NA NA audio-keyboard-response 298 NA 14 2 75
1431946 FL learningBlock4 31175 FLtob NA NA audio-keyboard-response 301 NA 14 3 75
1431946 FL learningBlock4 20175 FLbim NA NA audio-keyboard-response 304 NA 14 2 75
1431946 FL learningBlock4 10675 FLdep NA NA audio-keyboard-response 307 NA 14 1 75
1431946 FL learningBlock4 12975 FLdep NA NA audio-keyboard-response 310 NA 14 1 75
1431946 FL learningBlock4 11225 FLdep NA NA audio-keyboard-response 313 NA 14 1 25
1431946 FL learningBlock4 12875 FLdep NA NA audio-keyboard-response 316 NA 14 1 75
1431946 FL learningBlock4 10775 FLdep NA NA audio-keyboard-response 319 NA 14 1 75
1431946 FL learningBlock4 10375 FLdep NA NA audio-keyboard-response 322 NA 14 1 75
1431946 FL learningBlock4 22975 FLbim NA NA audio-keyboard-response 325 NA 14 2 75
1431946 FL learningBlock4 11725 FLdep NA NA audio-keyboard-response 328 NA 14 1 25
1431946 FL learningBlock4 12175 FLdep NA NA audio-keyboard-response 331 NA 14 1 75
1431946 FL learningBlock4 22575 FLbim NA NA audio-keyboard-response 334 NA 14 2 75
1431946 FL learningBlock4 30475 FLtob NA NA audio-keyboard-response 337 NA 14 3 75
1431946 FL learningBlock4 11025 FLdep NA NA audio-keyboard-response 340 NA 14 1 25
1431946 FL learningBlock4 12475 FLdep NA NA audio-keyboard-response 343 NA 14 1 75
1431946 FL learningBlock4 21075 FLbim NA NA audio-keyboard-response 346 NA 14 2 75
1431946 FL learningBlock4 31225 FLtob NA NA audio-keyboard-response 349 NA 14 3 25
1431946 FL learningBlock4 13475 FLdep NA NA audio-keyboard-response 352 NA 14 1 75
1431946 FL learningBlock4 11575 FLdep NA NA audio-keyboard-response 355 NA 14 1 75
1431946 FL learningBlock4 20175 FLbim NA NA audio-keyboard-response 358 NA 14 2 75
1431946 FL learningBlock4 21975 FLbim NA NA audio-keyboard-response 361 NA 14 2 75
1431946 FL learningBlock4 31925 FLtob NA NA audio-keyboard-response 364 NA 14 3 25
1431946 FL learningBlock4 30725 FLtob NA NA audio-keyboard-response 367 NA 14 3 25
1431946 FL learningBlock4 20475 FLbim NA NA audio-keyboard-response 370 NA 14 2 75
1431946 FL learningBlock4 31175 FLtob NA NA audio-keyboard-response 373 NA 14 3 75
