subjID learning task fribbleID label rt resp trialType trialIndex acc Experiment.Version
1414937 NA randomDot NA NA 1145.21000001696 39 rdk 12 1 14
1414937 NA randomDot NA NA 713.779999990948 37 rdk 13 1 14
1414937 NA randomDot NA NA 953.300000022864 37 rdk 14 1 14
1414937 NA randomDot NA NA 666.070000006584 39 rdk 15 1 14
1414937 NA randomDot NA NA 674.445000011474 39 rdk 16 1 14
1414937 NA randomDot NA NA 1270.41999998619 37 rdk 17 1 14
1414937 NA randomDot NA NA 1500.1999999804 39 rdk 101 1 14
1414937 NA randomDot NA NA 887.450000009267 37 rdk 102 1 14
1414937 NA randomDot NA NA 689.16999999783 39 rdk 103 1 14
1414937 NA randomDot NA NA 541.694999992615 37 rdk 104 1 14
1414937 NA randomDot NA NA 714.899999991758 37 rdk 105 1 14
1414937 NA randomDot NA NA 1187.03999998979 39 rdk 248 1 14
1414937 NA randomDot NA NA 568.144999997457 37 rdk 249 1 14
1414937 NA randomDot NA NA 531.959999992978 39 rdk 250 1 14
1414937 NA randomDot NA NA 471.984999981942 37 rdk 251 1 14
1414937 NA randomDot NA NA 441.519999993034 37 rdk 252 1 14
1414937 NA randomDot NA NA 1857.30999999214 39 rdk 329 1 14
1414937 NA randomDot NA NA 457.115000026533 37 rdk 330 1 14
1414937 NA randomDot NA NA 551.774999999907 39 rdk 331 1 14
1414937 NA randomDot NA NA 388.370000000577 37 rdk 332 1 14
1414937 NA randomDot NA NA 428.630000009434 37 rdk 333 1 14
1414937 NA randomDot NA NA 1720.41999999783 39 rdk 398 1 14
1414937 NA randomDot NA NA 453.760000003967 37 rdk 399 1 14
1414937 NA randomDot NA NA 622.315000015078 39 rdk 400 1 14
1414937 NA randomDot NA NA 524.964999989606 37 rdk 401 1 14
1414937 NA randomDot NA NA 642.955000017537 37 rdk 402 1 14
1414945 NA randomDot NA NA 1904.77500017732 37 rdk 12 1 14
1414945 NA randomDot NA NA -1 -1 rdk 13 0 14
1414945 NA randomDot NA NA 799.890000373125 39 rdk 14 1 14
1414945 NA randomDot NA NA 827.645000070333 39 rdk 15 1 14
1414945 NA randomDot NA NA 1028.10499956831 37 rdk 16 1 14
1414945 NA randomDot NA NA 738.774999976158 39 rdk 17 1 14
1414945 NA randomDot NA NA -1 -1 rdk 110 0 14
1414945 NA randomDot NA NA 1156.41999989748 39 rdk 111 1 14
1414945 NA randomDot NA NA 944.805000443012 39 rdk 112 1 14
1414945 NA randomDot NA NA 1182.00999964029 39 rdk 113 1 14
1414945 NA randomDot NA NA 666.449999902397 37 rdk 114 1 14
1414945 NA randomDot NA NA 1381.20999978855 39 rdk 188 1 14
1414945 NA randomDot NA NA 1091.57999977469 39 rdk 189 1 14
1414945 NA randomDot NA NA 1488.80500020459 39 rdk 190 1 14
1414945 NA randomDot NA NA 1079.7850000672 39 rdk 191 1 14
1414945 NA randomDot NA NA -1 -1 rdk 192 0 14
1414945 NA randomDot NA NA 1246.78000016138 39 rdk 302 1 14
1414945 NA randomDot NA NA 706.835000310093 39 rdk 303 1 14
1414945 NA randomDot NA NA 808.934999629855 39 rdk 304 1 14
1414945 NA randomDot NA NA 1132.50999990851 39 rdk 305 1 14
1414945 NA randomDot NA NA 617.25000012666 37 rdk 306 1 14
1414945 NA randomDot NA NA 925.96000013873 39 rdk 398 1 14
1414945 NA randomDot NA NA 821.985000278801 39 rdk 399 1 14
1414945 NA randomDot NA NA 1747.00499977916 39 rdk 400 1 14
1414945 NA randomDot NA NA 712.640000041574 39 rdk 401 1 14
1414945 NA randomDot NA NA 753.604999743402 37 rdk 402 1 14
1414957 NA randomDot NA NA 1257.69500000752 39 rdk 12 1 14
1414957 NA randomDot NA NA 880.875000002561 37 rdk 13 1 14
1414957 NA randomDot NA NA 1648.64499999385 37 rdk 14 1 14
1414957 NA randomDot NA NA 788.585000002058 37 rdk 15 1 14
1414957 NA randomDot NA NA 621.679999996559 39 rdk 16 1 14
1414957 NA randomDot NA NA 648.56499999587 39 rdk 17 1 14
1414957 NA randomDot NA NA 1254.23000000592 37 rdk 116 1 14
1414957 NA randomDot NA NA 1268.38500000304 39 rdk 117 1 14
1414957 NA randomDot NA NA 1036.38999999384 37 rdk 118 1 14
1414957 NA randomDot NA NA 840.224999992643 37 rdk 119 1 14
1414957 NA randomDot NA NA 626.610000006622 39 rdk 120 1 14
1414957 NA randomDot NA NA 1186.63499999093 37 rdk 218 1 14
1414957 NA randomDot NA NA 560.72999999742 39 rdk 219 1 14
1414957 NA randomDot NA NA 675.889999998617 37 rdk 220 1 14
1414957 NA randomDot NA NA 798.754999996163 37 rdk 221 1 14
1414957 NA randomDot NA NA 616.914999991423 39 rdk 222 1 14
1414957 NA randomDot NA NA 1315.18499999947 37 rdk 287 1 14
1414957 NA randomDot NA NA 654.470000008587 39 rdk 288 1 14
1414957 NA randomDot NA NA 830.035000006319 37 rdk 289 1 14
1414957 NA randomDot NA NA 948.220000005676 37 rdk 290 1 14
1414957 NA randomDot NA NA 663.095000010799 39 rdk 291 1 14
1414957 NA randomDot NA NA 1281.17000000202 37 rdk 398 1 14
1414957 NA randomDot NA NA 552.110000004177 39 rdk 399 1 14
1414957 NA randomDot NA NA 660.19999999844 37 rdk 400 1 14
1414957 NA randomDot NA NA 711.345000003348 37 rdk 401 1 14
1414957 NA randomDot NA NA 515.954999995301 39 rdk 402 1 14
1415040 NA randomDot NA NA 779 37 rdk 12 1 14
1415040 NA randomDot NA NA 738 37 rdk 13 1 14
1415040 NA randomDot NA NA 736 39 rdk 14 1 14
1415040 NA randomDot NA NA 506 37 rdk 15 1 14
1415040 NA randomDot NA NA 557 39 rdk 16 1 14
1415040 NA randomDot NA NA 702 39 rdk 17 1 14
1415040 NA randomDot NA NA 888 39 rdk 113 1 14
1415040 NA randomDot NA NA 572 37 rdk 114 1 14
1415040 NA randomDot NA NA 639 39 rdk 115 1 14
1415040 NA randomDot NA NA 556 39 rdk 116 1 14
1415040 NA randomDot NA NA 540 39 rdk 117 1 14
1415040 NA randomDot NA NA 1992 39 rdk 185 1 14
1415040 NA randomDot NA NA 604 37 rdk 186 1 14
1415040 NA randomDot NA NA 557 39 rdk 187 1 14
1415040 NA randomDot NA NA 805 39 rdk 188 1 14
1415040 NA randomDot NA NA 769 39 rdk 189 1 14
1415040 NA randomDot NA NA -1 -1 rdk 260 0 14
1415040 NA randomDot NA NA 639 37 rdk 261 1 14
1415040 NA randomDot NA NA 554 39 rdk 262 1 14
1415040 NA randomDot NA NA 559 39 rdk 263 1 14
1415040 NA randomDot NA NA 506 39 rdk 264 1 14
1415040 NA randomDot NA NA 862 39 rdk 398 1 14
1415040 NA randomDot NA NA 536 37 rdk 399 1 14
1415040 NA randomDot NA NA 576 39 rdk 400 1 14
1415040 NA randomDot NA NA 562 39 rdk 401 1 14
1415040 NA randomDot NA NA 504 39 rdk 402 1 14
1431949 NA randomDot NA NA 1402.78499998385 37 rdk 12 1 14
1431949 NA randomDot NA NA 786.100000026636 39 rdk 13 1 14
1431949 NA randomDot NA NA 1053.49500000011 39 rdk 14 1 14
1431949 NA randomDot NA NA 853.625000047032 39 rdk 15 1 14
1431949 NA randomDot NA NA 575.259999954142 37 rdk 16 1 14
1431949 NA randomDot NA NA 738.490000017919 37 rdk 17 1 14
1431949 NA randomDot NA NA 1405.83999996306 37 rdk 80 1 14
1431949 NA randomDot NA NA 643.619999988005 39 rdk 81 1 14
1431949 NA randomDot NA NA 578.054999990854 37 rdk 82 1 14
1431949 NA randomDot NA NA 811.485000012908 37 rdk 83 1 14
1431949 NA randomDot NA NA 578.56500003254 39 rdk 84 1 14
1431949 NA randomDot NA NA 1588.4949999745 37 rdk 179 1 14
1431949 NA randomDot NA NA 560.445000010077 39 rdk 180 1 14
1431949 NA randomDot NA NA 757.710000034422 37 rdk 181 1 14
1431949 NA randomDot NA NA 680.649999994785 37 rdk 182 1 14
1431949 NA randomDot NA NA 554.029999999329 39 rdk 183 1 14
1431949 NA randomDot NA NA 1574.76500002667 37 rdk 263 1 14
1431949 NA randomDot NA NA 473.479999986012 39 rdk 264 1 14
1431949 NA randomDot NA NA 1060.67500001518 37 rdk 265 1 14
1431949 NA randomDot NA NA 682.375000033062 37 rdk 266 1 14
1431949 NA randomDot NA NA 570.00499998685 39 rdk 267 1 14
1431949 NA randomDot NA NA -1 -1 rdk 398 0 14
1431949 NA randomDot NA NA 465.945000003558 39 rdk 399 1 14
1431949 NA randomDot NA NA 541.009999986272 37 rdk 400 1 14
1431949 NA randomDot NA NA 694.580000010319 37 rdk 401 1 14
1431949 NA randomDot NA NA 464.399999997113 39 rdk 402 1 14
1431944 NA randomDot NA NA -1 -1 rdk 12 0 14
1431944 NA randomDot NA NA -1 -1 rdk 13 0 14
1431944 NA randomDot NA NA 1434.2600000021 39 rdk 14 1 14
1431944 NA randomDot NA NA 619.070000000764 37 rdk 15 1 14
1431944 NA randomDot NA NA 547.939999996684 39 rdk 16 1 14
1431944 NA randomDot NA NA 566.449999998324 37 rdk 17 1 14
1431944 NA randomDot NA NA 1499.64000000199 37 rdk 155 1 14
1431944 NA randomDot NA NA 1162.20500000054 39 rdk 156 0 14
1431944 NA randomDot NA NA 640.094999998808 37 rdk 157 1 14
1431944 NA randomDot NA NA 844.844999999274 39 rdk 158 0 14
1431944 NA randomDot NA NA 738.944999997038 39 rdk 159 1 14
1431944 NA randomDot NA NA -1 -1 rdk 248 0 14
1431944 NA randomDot NA NA -1 -1 rdk 249 0 14
1431944 NA randomDot NA NA 845.875000002794 37 rdk 250 1 14
1431944 NA randomDot NA NA 736.994999999646 37 rdk 251 1 14
1431944 NA randomDot NA NA 608.759999999311 39 rdk 252 1 14
1431944 NA randomDot NA NA 1190.16499999957 37 rdk 317 1 14
1431944 NA randomDot NA NA 830.560000002384 39 rdk 318 0 14
1431944 NA randomDot NA NA 1181.28000000073 39 rdk 319 0 14
1431944 NA randomDot NA NA 1076.85000000102 37 rdk 320 1 14
1431944 NA randomDot NA NA 429.935000000056 39 rdk 321 1 14
1431944 NA randomDot NA NA -1 -1 rdk 398 0 14
1431944 NA randomDot NA NA 4.85000000102445 39 rdk 399 0 14
1431944 NA randomDot NA NA 314.604999999516 37 rdk 400 1 14
1431944 NA randomDot NA NA 551.544999998529 37 rdk 401 1 14
1431944 NA randomDot NA NA 501.794999999925 39 rdk 402 1 14
1431953 NA randomDot NA NA 905.735000036657 39 rdk 12 1 14
1431953 NA randomDot NA NA 835.390000022016 39 rdk 13 1 14
1431953 NA randomDot NA NA 501.72499998007 37 rdk 14 1 14
1431953 NA randomDot NA NA 747.799999895506 37 rdk 15 1 14
1431953 NA randomDot NA NA 737.554999999702 37 rdk 16 1 14
1431953 NA randomDot NA NA 660.795000032522 39 rdk 17 1 14
1431953 NA randomDot NA NA 1843.38500001468 39 rdk 131 1 14
1431953 NA randomDot NA NA 502.61500000488 37 rdk 132 1 14
1431953 NA randomDot NA NA 479.704999946989 39 rdk 133 1 14
1431953 NA randomDot NA NA 497.564999968745 39 rdk 134 1 14
1431953 NA randomDot NA NA 490.304999984801 39 rdk 135 1 14
1431953 NA randomDot NA NA 837.625000043772 39 rdk 215 1 14
1431953 NA randomDot NA NA 437.604999984615 39 rdk 216 0 14
1431953 NA randomDot NA NA 553.814999992028 39 rdk 217 1 14
1431953 NA randomDot NA NA 573.08500004001 39 rdk 218 1 14
1431953 NA randomDot NA NA 652.010000078008 39 rdk 219 1 14
1431953 NA randomDot NA NA 1307.4749999214 39 rdk 308 1 14
1431953 NA randomDot NA NA 439.675000030547 37 rdk 309 1 14
1431953 NA randomDot NA NA 468.529999954626 39 rdk 310 1 14
1431953 NA randomDot NA NA 406.385000096634 39 rdk 311 1 14
1431953 NA randomDot NA NA 412.280000047758 39 rdk 312 1 14
1431953 NA randomDot NA NA 1332.35499996226 39 rdk 398 1 14
1431953 NA randomDot NA NA 547.239999985322 37 rdk 399 1 14
1431953 NA randomDot NA NA 560.010000015609 39 rdk 400 1 14
1431953 NA randomDot NA NA 481.535000028089 39 rdk 401 1 14
1431953 NA randomDot NA NA 481.224999995902 39 rdk 402 1 14
1431958 NA randomDot NA NA 1330.19999999998 39 rdk 12 1 14
1431958 NA randomDot NA NA 690.44000000009 37 rdk 13 1 14
1431958 NA randomDot NA NA 589.74000000002 39 rdk 14 1 14
1431958 NA randomDot NA NA 548.214999999909 37 rdk 15 1 14
1431958 NA randomDot NA NA 1007.10500000004 39 rdk 16 0 14
1431958 NA randomDot NA NA 1041.60000000001 39 rdk 17 1 14
1431958 NA randomDot NA NA 1726.82999999996 39 rdk 86 1 14
1431958 NA randomDot NA NA 789.26999999996 37 rdk 87 1 14
1431958 NA randomDot NA NA 655.265000000014 39 rdk 88 1 14
1431958 NA randomDot NA NA 605.900000000023 37 rdk 89 1 14
1431958 NA randomDot NA NA 690.669999999925 39 rdk 90 1 14
1431958 NA randomDot NA NA 1112.47999999998 39 rdk 185 1 14
1431958 NA randomDot NA NA 987.645000000077 37 rdk 186 1 14
1431958 NA randomDot NA NA 637.080000000016 39 rdk 187 1 14
1431958 NA randomDot NA NA 663.179999999993 37 rdk 188 1 14
1431958 NA randomDot NA NA 555.909999999974 39 rdk 189 1 14
1431958 NA randomDot NA NA 740.619999999879 39 rdk 305 1 14
1431958 NA randomDot NA NA 476.815000000119 37 rdk 306 1 14
1431958 NA randomDot NA NA 460.190000000002 39 rdk 307 1 14
1431958 NA randomDot NA NA 815.015000000014 37 rdk 308 1 14
1431958 NA randomDot NA NA 575.684999999998 39 rdk 309 1 14
1431958 NA randomDot NA NA 596.740000000224 39 rdk 398 1 14
1431958 NA randomDot NA NA 575.545000000158 37 rdk 399 1 14
1431958 NA randomDot NA NA 558.605000000214 39 rdk 400 1 14
1431958 NA randomDot NA NA 573.979999999865 37 rdk 401 1 14
1431958 NA randomDot NA NA 612.20000000007 39 rdk 402 1 14
1431965 NA randomDot NA NA -1 -1 rdk 12 0 14
1431965 NA randomDot NA NA -1 -1 rdk 13 0 14
1431965 NA randomDot NA NA 18 37 rdk 14 1 14
1431965 NA randomDot NA NA 1278 39 rdk 15 1 14
1431965 NA randomDot NA NA 1157 39 rdk 16 1 14
1431965 NA randomDot NA NA 1582 39 rdk 17 1 14
1431965 NA randomDot NA NA -1 -1 rdk 104 0 14
1431965 NA randomDot NA NA 1293 37 rdk 105 1 14
1431965 NA randomDot NA NA 588 39 rdk 106 1 14
1431965 NA randomDot NA NA 688 39 rdk 107 1 14
1431965 NA randomDot NA NA 588 37 rdk 108 1 14
1431965 NA randomDot NA NA 1848 39 rdk 221 1 14
1431965 NA randomDot NA NA 644 37 rdk 222 1 14
1431965 NA randomDot NA NA 553 39 rdk 223 1 14
1431965 NA randomDot NA NA 568 39 rdk 224 1 14
1431965 NA randomDot NA NA 501 37 rdk 225 1 14
1431965 NA randomDot NA NA 1753 39 rdk 305 1 14
1431965 NA randomDot NA NA 636 37 rdk 306 1 14
1431965 NA randomDot NA NA 436 39 rdk 307 1 14
1431965 NA randomDot NA NA 493 39 rdk 308 1 14
1431965 NA randomDot NA NA 442 37 rdk 309 1 14
1431965 NA randomDot NA NA 929 39 rdk 398 1 14
1431965 NA randomDot NA NA 629 37 rdk 399 1 14
1431965 NA randomDot NA NA 673 39 rdk 400 1 14
1431965 NA randomDot NA NA 768 39 rdk 401 1 14
1431965 NA randomDot NA NA 701 37 rdk 402 1 14
1431946 NA randomDot NA NA 1363.99499999243 39 rdk 12 1 14
1431946 NA randomDot NA NA 1026.57499999623 37 rdk 13 1 14
1431946 NA randomDot NA NA 983.964999992168 39 rdk 14 1 14
1431946 NA randomDot NA NA 857.920000009472 39 rdk 15 1 14
1431946 NA randomDot NA NA 698.120000000927 37 rdk 16 1 14
1431946 NA randomDot NA NA 536.019999999553 37 rdk 17 1 14
1431946 NA randomDot NA NA 1090.60000001045 39 rdk 92 1 14
1431946 NA randomDot NA NA 756.190000000061 37 rdk 93 1 14
1431946 NA randomDot NA NA 727.689999999711 37 rdk 94 1 14
1431946 NA randomDot NA NA 921.000000002095 37 rdk 95 1 14
1431946 NA randomDot NA NA 732.550000000629 39 rdk 96 1 14
1431946 NA randomDot NA NA 1371.07500000275 39 rdk 173 1 14
1431946 NA randomDot NA NA 975.200000000768 37 rdk 174 1 14
1431946 NA randomDot NA NA 992.989999998827 37 rdk 175 1 14
1431946 NA randomDot NA NA 953.840000001946 37 rdk 176 1 14
1431946 NA randomDot NA NA 832.609999997658 39 rdk 177 1 14
1431946 NA randomDot NA NA 1583.85999999882 39 rdk 266 1 14
1431946 NA randomDot NA NA 745.850000006612 37 rdk 267 1 14
1431946 NA randomDot NA NA 685.275000010733 37 rdk 268 1 14
1431946 NA randomDot NA NA 645.004999998491 37 rdk 269 1 14
1431946 NA randomDot NA NA 694.300000002841 39 rdk 270 1 14
1431946 NA randomDot NA NA 1241.71499999647 39 rdk 398 1 14
1431946 NA randomDot NA NA 934.329999989131 37 rdk 399 1 14
1431946 NA randomDot NA NA 749.544999998761 37 rdk 400 1 14
1431946 NA randomDot NA NA 711.840000003576 37 rdk 401 1 14
1431946 NA randomDot NA NA 699.199999988195 39 rdk 402 1 14
1431957 NA randomDot NA NA 860.459999996237 39 rdk 12 1 14
1431957 NA randomDot NA NA 658.724999986589 39 rdk 13 1 14
1431957 NA randomDot NA NA 512.350000004517 37 rdk 14 1 14
1431957 NA randomDot NA NA 738.8149999897 37 rdk 15 1 14
1431957 NA randomDot NA NA 889.244999998482 39 rdk 16 1 14
1431957 NA randomDot NA NA 878.039999981411 37 rdk 17 1 14
1431957 NA randomDot NA NA 1298.74999998719 37 rdk 134 1 14
1431957 NA randomDot NA NA 711.670000018785 37 rdk 135 1 14
1431957 NA randomDot NA NA 548.334999999497 39 rdk 136 1 14
1431957 NA randomDot NA NA 490.235000004759 39 rdk 137 1 14
1431957 NA randomDot NA NA 469.855000003008 39 rdk 138 1 14
1431957 NA randomDot NA NA 775.049999996554 37 rdk 248 1 14
1431957 NA randomDot NA NA 527.434999996331 37 rdk 249 1 14
1431957 NA randomDot NA NA 529.899999994086 39 rdk 250 1 14
1431957 NA randomDot NA NA 575.030000007246 39 rdk 251 1 14
1431957 NA randomDot NA NA 520.040000003064 39 rdk 252 1 14
1431957 NA randomDot NA NA 704.194999998435 37 rdk 329 1 14
1431957 NA randomDot NA NA 518.650000012713 37 rdk 330 1 14
1431957 NA randomDot NA NA 494.869999994989 39 rdk 331 1 14
1431957 NA randomDot NA NA 519.215000007534 39 rdk 332 1 14
1431957 NA randomDot NA NA 597.295000014128 39 rdk 333 1 14
1431957 NA randomDot NA NA 657.054999988759 37 rdk 398 1 14
1431957 NA randomDot NA NA 612.064999993891 37 rdk 399 1 14
1431957 NA randomDot NA NA 665.355000004638 39 rdk 400 1 14
1431957 NA randomDot NA NA 626.090000005206 39 rdk 401 1 14
1431957 NA randomDot NA NA 547.74500001804 39 rdk 402 1 14
1431961 NA randomDot NA NA 1686.20500000543 37 rdk 12 1 14
1431961 NA randomDot NA NA 643.070000005537 39 rdk 13 1 14
1431961 NA randomDot NA NA 532.395000001998 39 rdk 14 1 14
1431961 NA randomDot NA NA 465.499999991152 37 rdk 15 1 14
1431961 NA randomDot NA NA 508.554999993066 37 rdk 16 1 14
1431961 NA randomDot NA NA 603.944999995292 39 rdk 17 1 14
1431961 NA randomDot NA NA 1537.16999999597 39 rdk 83 1 14
1431961 NA randomDot NA NA 1489.78499999794 39 rdk 84 1 14
1431961 NA randomDot NA NA 770.099999994272 37 rdk 85 1 14
1431961 NA randomDot NA NA 539.059999995516 39 rdk 86 1 14
1431961 NA randomDot NA NA 577.02500000596 37 rdk 87 1 14
1431961 NA randomDot NA NA 1736.17000000377 39 rdk 176 1 14
1431961 NA randomDot NA NA 1087.11000000767 39 rdk 177 1 14
1431961 NA randomDot NA NA 864.379999999073 37 rdk 178 1 14
1431961 NA randomDot NA NA 702.58999998623 39 rdk 179 1 14
1431961 NA randomDot NA NA 601.804999998421 37 rdk 180 1 14
1431961 NA randomDot NA NA -1 -1 rdk 275 0 14
1431961 NA randomDot NA NA 878.035000001546 39 rdk 276 1 14
1431961 NA randomDot NA NA 696.945000003325 37 rdk 277 1 14
1431961 NA randomDot NA NA 679.170000003069 39 rdk 278 1 14
1431961 NA randomDot NA NA 533.990000010817 37 rdk 279 1 14
1431961 NA randomDot NA NA 1263.26999999583 39 rdk 398 1 14
1431961 NA randomDot NA NA 1227.39000000001 39 rdk 399 1 14
1431961 NA randomDot NA NA 528.409999998985 37 rdk 400 1 14
1431961 NA randomDot NA NA 586.070000004838 39 rdk 401 1 14
1431961 NA randomDot NA NA 595.574999999371 37 rdk 402 1 14
1431969 NA randomDot NA NA 1518 39 rdk 12 1 14
1431969 NA randomDot NA NA 830 39 rdk 13 1 14
1431969 NA randomDot NA NA 628 37 rdk 14 1 14
1431969 NA randomDot NA NA 547 37 rdk 15 1 14
1431969 NA randomDot NA NA 535 37 rdk 16 1 14
1431969 NA randomDot NA NA 1685 39 rdk 17 1 14
1431969 NA randomDot NA NA 1650 39 rdk 116 1 14
1431969 NA randomDot NA NA 639 37 rdk 117 1 14
1431969 NA randomDot NA NA 625 37 rdk 118 1 14
1431969 NA randomDot NA NA 590 37 rdk 119 1 14
1431969 NA randomDot NA NA 577 37 rdk 120 1 14
1431969 NA randomDot NA NA 816 39 rdk 248 1 14
1431969 NA randomDot NA NA 610 37 rdk 249 1 14
1431969 NA randomDot NA NA 977 37 rdk 250 1 14
1431969 NA randomDot NA NA 797 37 rdk 251 1 14
1431969 NA randomDot NA NA 863 37 rdk 252 1 14
1431969 NA randomDot NA NA 1272 39 rdk 323 1 14
1431969 NA randomDot NA NA 681 37 rdk 324 1 14
1431969 NA randomDot NA NA 697 37 rdk 325 1 14
1431969 NA randomDot NA NA 629 37 rdk 326 1 14
1431969 NA randomDot NA NA 684 37 rdk 327 1 14
1431969 NA randomDot NA NA 1240 39 rdk 398 1 14
1431969 NA randomDot NA NA 664 37 rdk 399 1 14
1431969 NA randomDot NA NA 711 37 rdk 400 1 14
1431969 NA randomDot NA NA 696 37 rdk 401 1 14
1431969 NA randomDot NA NA 681 37 rdk 402 1 14
1431978 NA randomDot NA NA 919.850000005681 39 rdk 12 1 14
1431978 NA randomDot NA NA 620.060000001104 39 rdk 13 1 14
1431978 NA randomDot NA NA 894.765000004554 37 rdk 14 1 14
1431978 NA randomDot NA NA 679.974999991828 39 rdk 15 1 14
1431978 NA randomDot NA NA 674.020000005839 37 rdk 16 1 14
1431978 NA randomDot NA NA 1462.69499999471 37 rdk 17 1 14
1431978 NA randomDot NA NA -1 -1 rdk 83 0 14
1431978 NA randomDot NA NA 1009.75999998627 39 rdk 84 1 14
1431978 NA randomDot NA NA 598.335000002407 39 rdk 85 1 14
1431978 NA randomDot NA NA 792.709999994258 37 rdk 86 1 14
1431978 NA randomDot NA NA 444.739999991725 39 rdk 87 1 14
1431978 NA randomDot NA NA 636.989999999059 39 rdk 227 1 14
1431978 NA randomDot NA NA 465.339999995194 39 rdk 228 1 14
1431978 NA randomDot NA NA 459.819999989122 39 rdk 229 1 14
1431978 NA randomDot NA NA 499.444999994012 37 rdk 230 1 14
1431978 NA randomDot NA NA 533.494999996037 39 rdk 231 1 14
1431978 NA randomDot NA NA 1967.56999999343 39 rdk 332 1 14
1431978 NA randomDot NA NA 428.214999992633 39 rdk 333 1 14
1431978 NA randomDot NA NA 468.394999988959 39 rdk 334 1 14
1431978 NA randomDot NA NA 530.280000006314 37 rdk 335 1 14
1431978 NA randomDot NA NA 642.175000000861 39 rdk 336 1 14
1431978 NA randomDot NA NA 771.420000004582 39 rdk 398 1 14
1431978 NA randomDot NA NA 491.265000004205 39 rdk 399 1 14
1431978 NA randomDot NA NA 827.409999998054 39 rdk 400 1 14
1431978 NA randomDot NA NA 538.93500000413 37 rdk 401 1 14
1431978 NA randomDot NA NA 471.089999991818 39 rdk 402 1 14
1431979 NA randomDot NA NA 1512 37 rdk 12 1 14
1431979 NA randomDot NA NA 992 39 rdk 13 1 14
1431979 NA randomDot NA NA 715 39 rdk 14 1 14
1431979 NA randomDot NA NA 607 39 rdk 15 1 14
1431979 NA randomDot NA NA 593 37 rdk 16 1 14
1431979 NA randomDot NA NA 650 37 rdk 17 1 14
1431979 NA randomDot NA NA 1807 37 rdk 128 1 14
1431979 NA randomDot NA NA 663 37 rdk 129 1 14
1431979 NA randomDot NA NA 779 37 rdk 130 1 14
1431979 NA randomDot NA NA 812 37 rdk 131 1 14
1431979 NA randomDot NA NA 813 39 rdk 132 1 14
1431979 NA randomDot NA NA -1 -1 rdk 233 0 14
1431979 NA randomDot NA NA 687 37 rdk 234 1 14
1431979 NA randomDot NA NA 709 37 rdk 235 1 14
1431979 NA randomDot NA NA 751 37 rdk 236 1 14
1431979 NA randomDot NA NA 696 39 rdk 237 1 14
1431979 NA randomDot NA NA -1 -1 rdk 302 0 14
1431979 NA randomDot NA NA 976 37 rdk 303 1 14
1431979 NA randomDot NA NA 793 37 rdk 304 1 14
1431979 NA randomDot NA NA 654 37 rdk 305 1 14
1431979 NA randomDot NA NA 602 39 rdk 306 1 14
1431979 NA randomDot NA NA 1239 37 rdk 398 1 14
1431979 NA randomDot NA NA 808 37 rdk 399 1 14
1431979 NA randomDot NA NA 949 37 rdk 400 1 14
1431979 NA randomDot NA NA 721 37 rdk 401 1 14
1431979 NA randomDot NA NA 628 39 rdk 402 1 14
1422477 NA randomDot NA NA 1568.98000001092 37 rdk 12 1 14
1422477 NA randomDot NA NA 987.254999985453 39 rdk 13 1 14
1422477 NA randomDot NA NA 718.07999999146 37 rdk 14 1 14
1422477 NA randomDot NA NA 1054.61500000092 37 rdk 15 1 14
1422477 NA randomDot NA NA 798.249999992549 39 rdk 16 1 14
1422477 NA randomDot NA NA 928.825000009965 39 rdk 17 1 14
1422477 NA randomDot NA NA -1 -1 rdk 95 0 14
1422477 NA randomDot NA NA 984.259999997448 39 rdk 96 1 14
1422477 NA randomDot NA NA 728.09999997844 37 rdk 97 1 14
1422477 NA randomDot NA NA 866.040000022622 39 rdk 98 1 14
1422477 NA randomDot NA NA 841.6300000099 37 rdk 99 1 14
1422477 NA randomDot NA NA 1236.01500000223 39 rdk 164 1 14
1422477 NA randomDot NA NA 674.605000007432 39 rdk 165 1 14
1422477 NA randomDot NA NA 700.205000001006 37 rdk 166 1 14
1422477 NA randomDot NA NA 630.770000017947 39 rdk 167 1 14
1422477 NA randomDot NA NA 753.075000015087 37 rdk 168 1 14
1422477 NA randomDot NA NA 1784.30500000832 39 rdk 329 1 14
1422477 NA randomDot NA NA 697.435000009136 39 rdk 330 1 14
1422477 NA randomDot NA NA 540.735000016866 37 rdk 331 1 14
1422477 NA randomDot NA NA 729.829999996582 39 rdk 332 1 14
1422477 NA randomDot NA NA 776.58999999403 37 rdk 333 1 14
1422477 NA randomDot NA NA 1079.65999998851 39 rdk 398 1 14
1422477 NA randomDot NA NA 671.05000000447 39 rdk 399 1 14
1422477 NA randomDot NA NA 592.860000004293 37 rdk 400 1 14
1422477 NA randomDot NA NA 550.069999997504 39 rdk 401 1 14
1422477 NA randomDot NA NA 553.349999972852 37 rdk 402 1 14
1422675 NA randomDot NA NA -1 -1 rdk 12 0 14
1422675 NA randomDot NA NA -1 -1 rdk 13 0 14
1422675 NA randomDot NA NA -1 -1 rdk 14 0 14
1422675 NA randomDot NA NA 1664.18500000145 39 rdk 15 1 14
1422675 NA randomDot NA NA 825.020000018412 37 rdk 16 1 14
1422675 NA randomDot NA NA 1338.2500000007 37 rdk 17 1 14
1422675 NA randomDot NA NA 962.4199999962 39 rdk 80 1 14
1422675 NA randomDot NA NA 900.685000000522 37 rdk 81 1 14
1422675 NA randomDot NA NA -1 -1 rdk 82 0 14
1422675 NA randomDot NA NA 720.450000022538 39 rdk 83 1 14
1422675 NA randomDot NA NA 879.11000000895 39 rdk 84 1 14
1422675 NA randomDot NA NA 1072.46000002488 39 rdk 209 1 14
1422675 NA randomDot NA NA 709.289999998873 37 rdk 210 1 14
1422675 NA randomDot NA NA 829.524999979185 37 rdk 211 1 14
1422675 NA randomDot NA NA 602.550000010524 39 rdk 212 1 14
1422675 NA randomDot NA NA 718.794999993406 39 rdk 213 1 14
1422675 NA randomDot NA NA 1578.73500001733 39 rdk 293 1 14
1422675 NA randomDot NA NA 643.210000009276 37 rdk 294 1 14
1422675 NA randomDot NA NA 798.54499999783 37 rdk 295 1 14
1422675 NA randomDot NA NA 514.945000002626 39 rdk 296 1 14
1422675 NA randomDot NA NA 886.364999983925 39 rdk 297 1 14
1422675 NA randomDot NA NA 1121.66500001331 39 rdk 398 1 14
1422675 NA randomDot NA NA 729.49499997776 37 rdk 399 1 14
1422675 NA randomDot NA NA 701.685000007274 37 rdk 400 1 14
1422675 NA randomDot NA NA 555.205000011483 39 rdk 401 1 14
1422675 NA randomDot NA NA 702.194999990752 39 rdk 402 1 14
1422677 NA randomDot NA NA -1 -1 rdk 12 0 14
1422677 NA randomDot NA NA -1 -1 rdk 13 0 14
1422677 NA randomDot NA NA -1 -1 rdk 14 0 14
1422677 NA randomDot NA NA 1300.89499999303 37 rdk 15 1 14
1422677 NA randomDot NA NA 736.945000011474 39 rdk 16 1 14
1422677 NA randomDot NA NA 802.420000021812 37 rdk 17 1 14
1422677 NA randomDot NA NA -1 -1 rdk 128 0 14
1422677 NA randomDot NA NA -1 -1 rdk 129 0 14
1422677 NA randomDot NA NA 781.420000013895 37 rdk 130 1 14
1422677 NA randomDot NA NA 730.409999989206 37 rdk 131 1 14
1422677 NA randomDot NA NA 621.915000025183 39 rdk 132 1 14
1422677 NA randomDot NA NA 1136.74499999615 39 rdk 221 1 14
1422677 NA randomDot NA NA 914.254999981495 39 rdk 222 1 14
1422677 NA randomDot NA NA 556.815000018105 37 rdk 223 1 14
1422677 NA randomDot NA NA 943.18000000203 39 rdk 224 0 14
1422677 NA randomDot NA NA 568.209999997634 39 rdk 225 1 14
1422677 NA randomDot NA NA 1108.07499999646 39 rdk 293 1 14
1422677 NA randomDot NA NA 973.715000000084 39 rdk 294 1 14
1422677 NA randomDot NA NA 602.47499999241 37 rdk 295 1 14
1422677 NA randomDot NA NA 947.045000008075 37 rdk 296 1 14
1422677 NA randomDot NA NA 580.155000003288 39 rdk 297 1 14
1422677 NA randomDot NA NA 746.299999998882 39 rdk 398 1 14
1422677 NA randomDot NA NA 934.689999994589 39 rdk 399 1 14
1422677 NA randomDot NA NA 711.880000017118 37 rdk 400 1 14
1422677 NA randomDot NA NA 1042.74999999325 39 rdk 401 0 14
1422677 NA randomDot NA NA 573.684999981197 39 rdk 402 1 14
1422679 NA randomDot NA NA 1423.04999986663 39 rdk 12 1 14
1422679 NA randomDot NA NA -1 -1 rdk 13 0 14
1422679 NA randomDot NA NA -1 -1 rdk 14 0 14
1422679 NA randomDot NA NA 1322.87500007078 37 rdk 15 1 14
1422679 NA randomDot NA NA 638.65500013344 39 rdk 16 1 14
1422679 NA randomDot NA NA 1101.02499998175 39 rdk 17 1 14
1422679 NA randomDot NA NA 1513.39999982156 37 rdk 101 1 14
1422679 NA randomDot NA NA 479.980000061914 39 rdk 102 1 14
1422679 NA randomDot NA NA 600.384999997914 39 rdk 103 1 14
1422679 NA randomDot NA NA 1073.88999988325 39 rdk 104 1 14
1422679 NA randomDot NA NA 727.23999992013 39 rdk 105 1 14
1422679 NA randomDot NA NA 1591.910000192 37 rdk 173 1 14
1422679 NA randomDot NA NA 754.385000094771 39 rdk 174 1 14
1422679 NA randomDot NA NA 918.750000186265 39 rdk 175 1 14
1422679 NA randomDot NA NA 722.05499978736 39 rdk 176 1 14
1422679 NA randomDot NA NA 710.999999893829 39 rdk 177 1 14
1422679 NA randomDot NA NA -1 -1 rdk 251 0 14
1422679 NA randomDot NA NA 643.380000023171 39 rdk 252 1 14
1422679 NA randomDot NA NA 564.994999906048 39 rdk 253 1 14
1422679 NA randomDot NA NA 446.590000065044 39 rdk 254 1 14
1422679 NA randomDot NA NA 623.589999973774 37 rdk 255 0 14
1422679 NA randomDot NA NA 686.160000041127 37 rdk 398 1 14
1422679 NA randomDot NA NA 414.220000151545 39 rdk 399 1 14
1422679 NA randomDot NA NA 743.575000204146 39 rdk 400 1 14
1422679 NA randomDot NA NA 594.359999988228 39 rdk 401 1 14
1422679 NA randomDot NA NA 1244.75000007078 39 rdk 402 1 14
1422689 NA randomDot NA NA 1152.64499999466 39 rdk 12 1 14
1422689 NA randomDot NA NA 606.064999999944 37 rdk 13 1 14
1422689 NA randomDot NA NA 655.984999990324 39 rdk 14 1 14
1422689 NA randomDot NA NA 658.689999982016 37 rdk 15 1 14
1422689 NA randomDot NA NA 866.529999999329 37 rdk 16 1 14
1422689 NA randomDot NA NA 592.7049999882 39 rdk 17 1 14
1422689 NA randomDot NA NA 906.589999998687 37 rdk 107 1 14
1422689 NA randomDot NA NA 489.444999984698 39 rdk 108 1 14
1422689 NA randomDot NA NA 542.080000013812 37 rdk 109 0 14
1422689 NA randomDot NA NA 774.959999980638 37 rdk 110 1 14
1422689 NA randomDot NA NA 1223.86500000721 37 rdk 111 1 14
1422689 NA randomDot NA NA 891.230000008363 37 rdk 203 1 14
1422689 NA randomDot NA NA 653.600000019651 39 rdk 204 1 14
1422689 NA randomDot NA NA -1 -1 rdk 205 0 14
1422689 NA randomDot NA NA 515.149999991991 37 rdk 206 1 14
1422689 NA randomDot NA NA 962.614999996731 39 rdk 207 0 14
1422689 NA randomDot NA NA 1267.9749999952 39 rdk 293 0 14
1422689 NA randomDot NA NA 854.355000017677 37 rdk 294 0 14
1422689 NA randomDot NA NA 961.615000007441 37 rdk 295 0 14
1422689 NA randomDot NA NA 989.044999994803 39 rdk 296 0 14
1422689 NA randomDot NA NA 887.079999985872 39 rdk 297 0 14
1422689 NA randomDot NA NA 1354.49500000686 39 rdk 398 0 14
1422689 NA randomDot NA NA 1351.51000000769 37 rdk 399 0 14
1422689 NA randomDot NA NA 1458.57499999693 37 rdk 400 0 14
1422689 NA randomDot NA NA 1266.55000000028 37 rdk 401 1 14
1422689 NA randomDot NA NA 1015.87999999174 37 rdk 402 1 14
1422716 NA randomDot NA NA 1163.05999993347 39 rdk 12 1 14
1422716 NA randomDot NA NA 450.694999890402 37 rdk 13 1 14
1422716 NA randomDot NA NA 520.840000128374 39 rdk 14 1 14
1422716 NA randomDot NA NA 518.075000029057 37 rdk 15 1 14
1422716 NA randomDot NA NA 764.280000003055 39 rdk 16 1 14
1422716 NA randomDot NA NA 541.145000141114 37 rdk 17 1 14
1422716 NA randomDot NA NA 1049.07499998808 37 rdk 80 1 14
1422716 NA randomDot NA NA 845.990000059828 37 rdk 81 1 14
1422716 NA randomDot NA NA 897.510000038892 37 rdk 82 1 14
1422716 NA randomDot NA NA 868.50000009872 37 rdk 83 1 14
1422716 NA randomDot NA NA 760.430000023916 39 rdk 84 1 14
1422716 NA randomDot NA NA 1180.19500002265 37 rdk 215 1 14
1422716 NA randomDot NA NA 821.910000173375 37 rdk 216 1 14
1422716 NA randomDot NA NA 1032.02499984764 37 rdk 217 1 14
1422716 NA randomDot NA NA 1114.36000000685 37 rdk 218 1 14
1422716 NA randomDot NA NA 1079.65500000864 39 rdk 219 1 14
1422716 NA randomDot NA NA 957.979999948293 37 rdk 320 1 14
1422716 NA randomDot NA NA 1218.60999986529 37 rdk 321 1 14
1422716 NA randomDot NA NA 1266.14999980666 37 rdk 322 1 14
1422716 NA randomDot NA NA 1482.98000008799 37 rdk 323 1 14
1422716 NA randomDot NA NA 1088.50000007078 39 rdk 324 1 14
1422716 NA randomDot NA NA 1304.92000002414 37 rdk 398 1 14
1422716 NA randomDot NA NA 710.084999911487 37 rdk 399 1 14
1422716 NA randomDot NA NA 633.435000199825 37 rdk 400 1 14
1422716 NA randomDot NA NA 576.95999997668 37 rdk 401 1 14
1422716 NA randomDot NA NA 588.459999999031 39 rdk 402 1 14
1431972 NA randomDot NA NA 1030.95499996562 39 rdk 12 1 14
1431972 NA randomDot NA NA 581.964999961201 37 rdk 13 1 14
1431972 NA randomDot NA NA 645.164999994449 37 rdk 14 1 14
1431972 NA randomDot NA NA 461.030000005849 39 rdk 15 1 14
1431972 NA randomDot NA NA 551.905000000261 39 rdk 16 1 14
1431972 NA randomDot NA NA 481.355000054464 37 rdk 17 1 14
1431972 NA randomDot NA NA 968.03499996895 39 rdk 110 1 14
1431972 NA randomDot NA NA 584.320000023581 37 rdk 111 1 14
1431972 NA randomDot NA NA 566.560000006575 37 rdk 112 1 14
1431972 NA randomDot NA NA 439.919999975245 37 rdk 113 1 14
1431972 NA randomDot NA NA 598.204999987502 39 rdk 114 1 14
1431972 NA randomDot NA NA -1 -1 rdk 191 0 14
1431972 NA randomDot NA NA 1323.52500001434 37 rdk 192 1 14
1431972 NA randomDot NA NA 701.289999997243 37 rdk 193 1 14
1431972 NA randomDot NA NA 854.790000012144 37 rdk 194 1 14
1431972 NA randomDot NA NA 806.949999998324 39 rdk 195 1 14
1431972 NA randomDot NA NA 1412.33500000089 39 rdk 293 1 14
1431972 NA randomDot NA NA 715.889999992214 37 rdk 294 1 14
1431972 NA randomDot NA NA 851.335000013933 39 rdk 295 0 14
1431972 NA randomDot NA NA 803.885000001173 37 rdk 296 1 14
1431972 NA randomDot NA NA 1198.8850000198 39 rdk 297 1 14
1431972 NA randomDot NA NA 826.349999988452 39 rdk 398 1 14
1431972 NA randomDot NA NA 531.07500000624 37 rdk 399 1 14
1431972 NA randomDot NA NA 669.554999971297 37 rdk 400 1 14
1431972 NA randomDot NA NA 479.890000016894 37 rdk 401 1 14
1431972 NA randomDot NA NA 613.620000018273 39 rdk 402 1 14
1431974 NA randomDot NA NA -1 -1 rdk 12 0 14
1431974 NA randomDot NA NA 1147.63999998104 39 rdk 13 1 14
1431974 NA randomDot NA NA 547.05500009004 39 rdk 14 1 14
1431974 NA randomDot NA NA 609.445000067353 37 rdk 15 1 14
1431974 NA randomDot NA NA 501.350000035018 39 rdk 16 1 14
1431974 NA randomDot NA NA 512.229999992996 37 rdk 17 1 14
1431974 NA randomDot NA NA 1288.65999996196 39 rdk 86 1 14
1431974 NA randomDot NA NA 501.084999996237 37 rdk 87 1 14
1431974 NA randomDot NA NA 642.125000013039 37 rdk 88 1 14
1431974 NA randomDot NA NA 685.245000058785 39 rdk 89 1 14
1431974 NA randomDot NA NA 727.735000080429 39 rdk 90 1 14
1431974 NA randomDot NA NA 1100.55500001181 39 rdk 182 1 14
1431974 NA randomDot NA NA 742.179999942891 37 rdk 183 1 14
1431974 NA randomDot NA NA 597.97499992419 37 rdk 184 1 14
1431974 NA randomDot NA NA 471.679999958724 39 rdk 185 1 14
1431974 NA randomDot NA NA 488.08000003919 39 rdk 186 1 14
1431974 NA randomDot NA NA 1326.90500002354 39 rdk 305 1 14
1431974 NA randomDot NA NA 750.499999965541 37 rdk 306 1 14
1431974 NA randomDot NA NA 872.37500003539 37 rdk 307 1 14
1431974 NA randomDot NA NA 616.23500008136 39 rdk 308 1 14
1431974 NA randomDot NA NA 560.185000067577 39 rdk 309 1 14
1431974 NA randomDot NA NA 1354.38000003342 39 rdk 398 1 14
1431974 NA randomDot NA NA 856.550000025891 37 rdk 399 1 14
1431974 NA randomDot NA NA 734.375 37 rdk 400 1 14
1431974 NA randomDot NA NA 1168.25500002597 39 rdk 401 1 14
1431974 NA randomDot NA NA 528.340000077151 39 rdk 402 1 14
1431984 NA randomDot NA NA 1503.24500026181 39 rdk 12 1 14
1431984 NA randomDot NA NA 815.045000053942 37 rdk 13 1 14
1431984 NA randomDot NA NA 694.205000065267 39 rdk 14 1 14
1431984 NA randomDot NA NA 532.41499979049 39 rdk 15 1 14
1431984 NA randomDot NA NA 517.390000168234 37 rdk 16 1 14
1431984 NA randomDot NA NA 1253.49000003189 39 rdk 17 0 14
1431984 NA randomDot NA NA 1611.89000029117 37 rdk 95 1 14
1431984 NA randomDot NA NA 695.885000284761 39 rdk 96 1 14
1431984 NA randomDot NA NA 1881.09999988228 37 rdk 97 1 14
1431984 NA randomDot NA NA 1102.28999983519 37 rdk 98 1 14
1431984 NA randomDot NA NA 712.270000018179 39 rdk 99 1 14
1431984 NA randomDot NA NA -1 -1 rdk 164 0 14
1431984 NA randomDot NA NA 746.139999944717 39 rdk 165 1 14
1431984 NA randomDot NA NA 590.65999975428 37 rdk 166 1 14
1431984 NA randomDot NA NA 544.920000247657 37 rdk 167 1 14
1431984 NA randomDot NA NA 595.964999869466 39 rdk 168 1 14
1431984 NA randomDot NA NA 1406.37500025332 37 rdk 239 1 14
1431984 NA randomDot NA NA 771.935000084341 39 rdk 240 1 14
1431984 NA randomDot NA NA 515.445000026375 37 rdk 241 1 14
1431984 NA randomDot NA NA 532.300000078976 37 rdk 242 1 14
1431984 NA randomDot NA NA 502.500000409782 39 rdk 243 1 14
1431984 NA randomDot NA NA 873.654999770224 37 rdk 398 1 14
1431984 NA randomDot NA NA 381.805000361055 39 rdk 399 1 14
1431984 NA randomDot NA NA 591.905000153929 37 rdk 400 1 14
1431984 NA randomDot NA NA 473.985000047833 37 rdk 401 1 14
1431984 NA randomDot NA NA 500.799999572337 39 rdk 402 1 14
1431992 NA randomDot NA NA 1930 39 rdk 12 1 14
1431992 NA randomDot NA NA 923 37 rdk 13 1 14
1431992 NA randomDot NA NA 576 39 rdk 14 1 14
1431992 NA randomDot NA NA 450 37 rdk 15 1 14
1431992 NA randomDot NA NA 681 39 rdk 16 1 14
1431992 NA randomDot NA NA 460 37 rdk 17 1 14
1431992 NA randomDot NA NA 814 37 rdk 101 1 14
1431992 NA randomDot NA NA 857 39 rdk 102 1 14
1431992 NA randomDot NA NA 444 37 rdk 103 1 14
1431992 NA randomDot NA NA 461 39 rdk 104 1 14
1431992 NA randomDot NA NA 572 39 rdk 105 1 14
1431992 NA randomDot NA NA 1197 37 rdk 188 1 14
1431992 NA randomDot NA NA 423 39 rdk 189 1 14
1431992 NA randomDot NA NA 431 37 rdk 190 1 14
1431992 NA randomDot NA NA 461 39 rdk 191 1 14
1431992 NA randomDot NA NA 501 39 rdk 192 1 14
1431992 NA randomDot NA NA 948 37 rdk 302 1 14
1431992 NA randomDot NA NA 531 39 rdk 303 1 14
1431992 NA randomDot NA NA 1049 37 rdk 304 1 14
1431992 NA randomDot NA NA 513 39 rdk 305 1 14
1431992 NA randomDot NA NA 507 39 rdk 306 1 14
1431992 NA randomDot NA NA 1184 37 rdk 398 1 14
1431992 NA randomDot NA NA 394 39 rdk 399 1 14
1431992 NA randomDot NA NA 427 37 rdk 400 1 14
1431992 NA randomDot NA NA 442 39 rdk 401 1 14
1431992 NA randomDot NA NA 495 39 rdk 402 1 14
1431997 NA randomDot NA NA -1 -1 rdk 12 0 14
1431997 NA randomDot NA NA 1079.57499986514 37 rdk 13 1 14
1431997 NA randomDot NA NA 1454.04999982566 39 rdk 14 1 14
1431997 NA randomDot NA NA 1629.01999987662 39 rdk 15 1 14
1431997 NA randomDot NA NA 1020.70500003174 39 rdk 16 1 14
1431997 NA randomDot NA NA 2352.19499981031 37 rdk 17 1 14
1431997 NA randomDot NA NA 892.539999913424 39 rdk 86 1 14
1431997 NA randomDot NA NA 702.004999853671 39 rdk 87 1 14
1431997 NA randomDot NA NA 470.440000295639 39 rdk 88 1 14
1431997 NA randomDot NA NA 671.894999686629 39 rdk 89 1 14
1431997 NA randomDot NA NA 614.864999894053 37 rdk 90 1 14
1431997 NA randomDot NA NA 766.185000073165 39 rdk 191 1 14
1431997 NA randomDot NA NA 608.759999740869 39 rdk 192 1 14
1431997 NA randomDot NA NA 458.050000015646 39 rdk 193 1 14
1431997 NA randomDot NA NA 882.920000236481 39 rdk 194 1 14
1431997 NA randomDot NA NA 483.469999860972 37 rdk 195 1 14
1431997 NA randomDot NA NA 704.159999731928 39 rdk 311 1 14
1431997 NA randomDot NA NA 445.31499966979 39 rdk 312 1 14
1431997 NA randomDot NA NA 503.694999963045 39 rdk 313 1 14
1431997 NA randomDot NA NA 491.664999630302 39 rdk 314 1 14
1431997 NA randomDot NA NA 596.355000045151 37 rdk 315 1 14
1431997 NA randomDot NA NA 925.34999968484 39 rdk 398 1 14
1431997 NA randomDot NA NA 440.954999998212 39 rdk 399 1 14
1431997 NA randomDot NA NA 436.119999736547 39 rdk 400 1 14
1431997 NA randomDot NA NA 390.569999814034 39 rdk 401 1 14
1431997 NA randomDot NA NA 514.714999590069 37 rdk 402 1 14
1432009 NA randomDot NA NA 1582 37 rdk 12 1 14
1432009 NA randomDot NA NA -1 -1 rdk 13 0 14
1432009 NA randomDot NA NA 741 39 rdk 14 1 14
1432009 NA randomDot NA NA 625 39 rdk 15 1 14
1432009 NA randomDot NA NA 1012 39 rdk 16 1 14
1432009 NA randomDot NA NA 573 37 rdk 17 1 14
1432009 NA randomDot NA NA 1835 39 rdk 95 1 14
1432009 NA randomDot NA NA 534 37 rdk 96 1 14
1432009 NA randomDot NA NA 543 39 rdk 97 1 14
1432009 NA randomDot NA NA 651 39 rdk 98 1 14
1432009 NA randomDot NA NA 472 37 rdk 99 1 14
1432009 NA randomDot NA NA 1607 39 rdk 230 1 14
1432009 NA randomDot NA NA 499 37 rdk 231 1 14
1432009 NA randomDot NA NA 453 39 rdk 232 1 14
1432009 NA randomDot NA NA 445 37 rdk 233 0 14
1432009 NA randomDot NA NA 690 37 rdk 234 1 14
1432009 NA randomDot NA NA 1748 39 rdk 308 1 14
1432009 NA randomDot NA NA 528 37 rdk 309 1 14
1432009 NA randomDot NA NA 493 39 rdk 310 1 14
1432009 NA randomDot NA NA 682 39 rdk 311 1 14
1432009 NA randomDot NA NA 565 37 rdk 312 1 14
1432009 NA randomDot NA NA 1519 39 rdk 398 1 14
1432009 NA randomDot NA NA 843 37 rdk 399 1 14
1432009 NA randomDot NA NA 494 39 rdk 400 1 14
1432009 NA randomDot NA NA 570 39 rdk 401 1 14
1432009 NA randomDot NA NA 526 37 rdk 402 1 14
1432011 NA randomDot NA NA -1 -1 rdk 12 0 14
1432011 NA randomDot NA NA 857.900000177324 39 rdk 13 1 14
1432011 NA randomDot NA NA 748.339999932796 39 rdk 14 1 14
1432011 NA randomDot NA NA 612.660000100732 37 rdk 15 1 14
1432011 NA randomDot NA NA 405.290000140667 37 rdk 16 1 14
1432011 NA randomDot NA NA 450.470000039786 39 rdk 17 1 14
1432011 NA randomDot NA NA -1 -1 rdk 83 0 14
1432011 NA randomDot NA NA 1338.37000001222 39 rdk 84 1 14
1432011 NA randomDot NA NA 679.084999952465 39 rdk 85 1 14
1432011 NA randomDot NA NA 563.115000259131 37 rdk 86 1 14
1432011 NA randomDot NA NA 531.655000057071 39 rdk 87 1 14
1432011 NA randomDot NA NA 1241.10000021756 39 rdk 203 0 14
1432011 NA randomDot NA NA 918.180000036955 39 rdk 204 1 14
1432011 NA randomDot NA NA 562.73499969393 39 rdk 205 1 14
1432011 NA randomDot NA NA 527.800000272691 37 rdk 206 1 14
1432011 NA randomDot NA NA 538.695000112057 39 rdk 207 1 14
1432011 NA randomDot NA NA -1 -1 rdk 323 0 14
1432011 NA randomDot NA NA 1467.8150000982 39 rdk 324 1 14
1432011 NA randomDot NA NA 586.00000012666 39 rdk 325 1 14
1432011 NA randomDot NA NA 973.540000151843 37 rdk 326 1 14
1432011 NA randomDot NA NA 714.149999897927 39 rdk 327 1 14
1432011 NA randomDot NA NA -1 -1 rdk 398 0 14
1432011 NA randomDot NA NA 1372.05500015989 39 rdk 399 1 14
1432011 NA randomDot NA NA 829.075000248849 37 rdk 400 0 14
1432011 NA randomDot NA NA 712.319999933243 37 rdk 401 1 14
1432011 NA randomDot NA NA 415.144999977201 39 rdk 402 1 14
1432052 NA randomDot NA NA 1224.96999998111 37 rdk 12 1 14
1432052 NA randomDot NA NA 406.895000021905 39 rdk 13 1 14
1432052 NA randomDot NA NA 373.530000040773 37 rdk 14 0 14
1432052 NA randomDot NA NA 375.479999987874 37 rdk 15 1 14
1432052 NA randomDot NA NA 298.32499998156 39 rdk 16 1 14
1432052 NA randomDot NA NA 391.34999999078 37 rdk 17 1 14
1432052 NA randomDot NA NA -1 -1 rdk 95 0 14
1432052 NA randomDot NA NA 208.385000005364 39 rdk 96 1 14
1432052 NA randomDot NA NA 430.455000023358 37 rdk 97 1 14
1432052 NA randomDot NA NA 419.615000020713 37 rdk 98 1 14
1432052 NA randomDot NA NA 466.864999965765 37 rdk 99 1 14
1432052 NA randomDot NA NA 1478.61500002909 39 rdk 230 1 14
1432052 NA randomDot NA NA 592.984999995679 39 rdk 231 1 14
1432052 NA randomDot NA NA 377.749999985099 37 rdk 232 1 14
1432052 NA randomDot NA NA 457.724999985658 37 rdk 233 1 14
1432052 NA randomDot NA NA 424.419999995735 37 rdk 234 1 14
1432052 NA randomDot NA NA 764.844999997877 39 rdk 329 1 14
1432052 NA randomDot NA NA 327.679999987595 37 rdk 330 0 14
1432052 NA randomDot NA NA 426.83000001125 37 rdk 331 1 14
1432052 NA randomDot NA NA 402.475000009872 37 rdk 332 1 14
1432052 NA randomDot NA NA 409.195000014734 37 rdk 333 1 14
1432052 NA randomDot NA NA -1 -1 rdk 398 0 14
1432052 NA randomDot NA NA 674.355000024661 39 rdk 399 1 14
1432052 NA randomDot NA NA 456.405000004452 37 rdk 400 1 14
1432052 NA randomDot NA NA 396.204999997281 37 rdk 401 1 14
1432052 NA randomDot NA NA 586.060000001453 37 rdk 402 1 14
1432075 NA randomDot NA NA 1397.82499987632 39 rdk 12 1 14
1432075 NA randomDot NA NA 719.319999916479 39 rdk 13 1 14
1432075 NA randomDot NA NA 622.394999954849 37 rdk 14 1 14
1432075 NA randomDot NA NA 583.564999978989 39 rdk 15 0 14
1432075 NA randomDot NA NA 815.345000009984 39 rdk 16 1 14
1432075 NA randomDot NA NA 624.779999954626 37 rdk 17 1 14
1432075 NA randomDot NA NA 1026.6849999316 37 rdk 98 1 14
1432075 NA randomDot NA NA 1670.76499992982 37 rdk 99 1 14
1432075 NA randomDot NA NA 648.735000053421 39 rdk 100 1 14
1432075 NA randomDot NA NA 959.014999913052 37 rdk 101 1 14
1432075 NA randomDot NA NA 674.559999955818 39 rdk 102 1 14
1432075 NA randomDot NA NA 1034.53000006266 37 rdk 200 1 14
1432075 NA randomDot NA NA 909.57499993965 37 rdk 201 1 14
1432075 NA randomDot NA NA 574.640000006184 39 rdk 202 1 14
1432075 NA randomDot NA NA 678.65000013262 37 rdk 203 1 14
1432075 NA randomDot NA NA 640.230000019073 39 rdk 204 1 14
1432075 NA randomDot NA NA 1095.44999990612 37 rdk 275 1 14
1432075 NA randomDot NA NA 1356.24000011012 37 rdk 276 1 14
1432075 NA randomDot NA NA 616.554999956861 39 rdk 277 1 14
1432075 NA randomDot NA NA 696.535000111908 37 rdk 278 1 14
1432075 NA randomDot NA NA 508.40499997139 39 rdk 279 1 14
1432075 NA randomDot NA NA 1774.10500007682 37 rdk 398 1 14
1432075 NA randomDot NA NA -1 -1 rdk 399 0 14
1432075 NA randomDot NA NA 844.230000162497 39 rdk 400 1 14
1432075 NA randomDot NA NA 911.465000128374 37 rdk 401 1 14
1432075 NA randomDot NA NA 911.439999938011 39 rdk 402 1 14
1420163 NA randomDot NA NA -1 -1 rdk 12 0 14
1420163 NA randomDot NA NA 235.324999986915 37 rdk 13 0 14
1420163 NA randomDot NA NA 1721.59000000102 39 rdk 14 1 14
1420163 NA randomDot NA NA 853.099999992992 37 rdk 15 1 14
1420163 NA randomDot NA NA 814.474999991944 37 rdk 16 1 14
1420163 NA randomDot NA NA 721.279999997932 39 rdk 17 1 14
1420163 NA randomDot NA NA 879.679999998189 37 rdk 83 1 14
1420163 NA randomDot NA NA 855.370000004768 37 rdk 84 1 14
1420163 NA randomDot NA NA 644.504999989294 39 rdk 85 1 14
1420163 NA randomDot NA NA 578.649999995832 39 rdk 86 1 14
1420163 NA randomDot NA NA 649.29500001017 37 rdk 87 1 14
1420163 NA randomDot NA NA 1035.85000000021 37 rdk 176 1 14
1420163 NA randomDot NA NA 1496.88000000606 37 rdk 177 1 14
1420163 NA randomDot NA NA 1295.93500000192 39 rdk 178 1 14
1420163 NA randomDot NA NA 698.994999998831 39 rdk 179 1 14
1420163 NA randomDot NA NA 645.974999992177 37 rdk 180 1 14
1420163 NA randomDot NA NA 1393.22500000708 37 rdk 299 1 14
1420163 NA randomDot NA NA 1999.57499999437 37 rdk 300 1 14
1420163 NA randomDot NA NA -1 -1 rdk 301 0 14
1420163 NA randomDot NA NA 792.034999991301 39 rdk 302 1 14
1420163 NA randomDot NA NA 774.250000002212 37 rdk 303 1 14
1420163 NA randomDot NA NA 1599.32000000845 37 rdk 398 1 14
1420163 NA randomDot NA NA 566.27500000468 37 rdk 399 1 14
1420163 NA randomDot NA NA 487.135000003036 39 rdk 400 1 14
1420163 NA randomDot NA NA 441.205000010086 39 rdk 401 1 14
1420163 NA randomDot NA NA 464.810000004945 37 rdk 402 1 14
1420165 NA randomDot NA NA 1611.51000001701 37 rdk 12 1 14
1420165 NA randomDot NA NA 1713.71500001987 37 rdk 13 1 14
1420165 NA randomDot NA NA 1433.0900000059 37 rdk 14 1 14
1420165 NA randomDot NA NA 871.675000002142 39 rdk 15 1 14
1420165 NA randomDot NA NA 782.089999993332 39 rdk 16 1 14
1420165 NA randomDot NA NA 941.38000003295 39 rdk 17 1 14
1420165 NA randomDot NA NA 835.309999994934 39 rdk 107 1 14
1420165 NA randomDot NA NA 651.190000004135 37 rdk 108 1 14
1420165 NA randomDot NA NA 521.295000042301 39 rdk 109 1 14
1420165 NA randomDot NA NA 1302.51000000862 39 rdk 110 1 14
1420165 NA randomDot NA NA 460.265000001527 37 rdk 111 1 14
1420165 NA randomDot NA NA 1519.36999999452 39 rdk 206 1 14
1420165 NA randomDot NA NA 503.220000013243 37 rdk 207 1 14
1420165 NA randomDot NA NA 517.140000010841 39 rdk 208 1 14
1420165 NA randomDot NA NA 575.209999980871 39 rdk 209 1 14
1420165 NA randomDot NA NA 524.780000036117 37 rdk 210 1 14
1420165 NA randomDot NA NA 1053.89500001911 39 rdk 308 1 14
1420165 NA randomDot NA NA 599.110000010114 37 rdk 309 1 14
1420165 NA randomDot NA NA 560.389999998733 39 rdk 310 1 14
1420165 NA randomDot NA NA 566.519999993034 37 rdk 311 0 14
1420165 NA randomDot NA NA 1176.7300000065 37 rdk 312 1 14
1420165 NA randomDot NA NA -1 -1 rdk 398 0 14
1420165 NA randomDot NA NA 838.035000022501 37 rdk 399 1 14
1420165 NA randomDot NA NA 545.395000022836 39 rdk 400 1 14
1420165 NA randomDot NA NA 1080.39499999722 39 rdk 401 1 14
1420165 NA randomDot NA NA 625.324999971781 37 rdk 402 1 14
1420177 NA randomDot NA NA 1220.48499999801 37 rdk 12 1 14
1420177 NA randomDot NA NA 904.264999990119 37 rdk 13 1 14
1420177 NA randomDot NA NA 633.509999985108 39 rdk 14 1 14
1420177 NA randomDot NA NA 581.590000016149 39 rdk 15 1 14
1420177 NA randomDot NA NA 518.645000003744 39 rdk 16 1 14
1420177 NA randomDot NA NA 486.875000002328 37 rdk 17 1 14
1420177 NA randomDot NA NA 1114.81999998796 39 rdk 107 1 14
1420177 NA randomDot NA NA 625.545000017155 37 rdk 108 1 14
1420177 NA randomDot NA NA 732.344999996712 37 rdk 109 1 14
1420177 NA randomDot NA NA 575.875000009546 37 rdk 110 1 14
1420177 NA randomDot NA NA 507.580000004964 37 rdk 111 1 14
1420177 NA randomDot NA NA 996.489999990445 39 rdk 182 1 14
1420177 NA randomDot NA NA 574.835000006715 37 rdk 183 1 14
1420177 NA randomDot NA NA 566.220000007888 37 rdk 184 1 14
1420177 NA randomDot NA NA 540.574999991804 37 rdk 185 1 14
1420177 NA randomDot NA NA 479.100000025937 37 rdk 186 1 14
1420177 NA randomDot NA NA 1261.31499998155 39 rdk 326 1 14
1420177 NA randomDot NA NA 523.905000009108 37 rdk 327 1 14
1420177 NA randomDot NA NA 501.610000006622 37 rdk 328 1 14
1420177 NA randomDot NA NA 577.540000027511 37 rdk 329 1 14
1420177 NA randomDot NA NA 506.294999999227 37 rdk 330 1 14
1420177 NA randomDot NA NA 1343.31500000553 39 rdk 398 1 14
1420177 NA randomDot NA NA 584.474999981467 37 rdk 399 1 14
1420177 NA randomDot NA NA 517.005000001518 37 rdk 400 1 14
1420177 NA randomDot NA NA 449.850000004517 37 rdk 401 1 14
1420177 NA randomDot NA NA 432.874999998603 37 rdk 402 1 14
1420180 NA randomDot NA NA -1 -1 rdk 12 0 14
1420180 NA randomDot NA NA 1461.80000000002 39 rdk 13 1 14
1420180 NA randomDot NA NA 645.710000000006 37 rdk 14 1 14
1420180 NA randomDot NA NA 376.485000000008 39 rdk 15 1 14
1420180 NA randomDot NA NA 416.329999999987 39 rdk 16 1 14
1420180 NA randomDot NA NA 286.495000000003 37 rdk 17 1 14
1420180 NA randomDot NA NA 1525.79000000001 39 rdk 98 1 14
1420180 NA randomDot NA NA 694.810000000012 39 rdk 99 1 14
1420180 NA randomDot NA NA 332.119999999995 37 rdk 100 0 14
1420180 NA randomDot NA NA 512.750000000015 39 rdk 101 1 14
1420180 NA randomDot NA NA 614.13999999997 37 rdk 102 1 14
1420180 NA randomDot NA NA -1 -1 rdk 200 0 14
1420180 NA randomDot NA NA 477.279999999999 39 rdk 201 1 14
1420180 NA randomDot NA NA 404.504999999946 39 rdk 202 1 14
1420180 NA randomDot NA NA 376.034999999974 39 rdk 203 1 14
1420180 NA randomDot NA NA 369.75999999998 37 rdk 204 1 14
1420180 NA randomDot NA NA 755.539999999979 39 rdk 272 1 14
1420180 NA randomDot NA NA 395.534999999974 39 rdk 273 1 14
1420180 NA randomDot NA NA 439.049999999988 39 rdk 274 1 14
1420180 NA randomDot NA NA 418.264999999956 39 rdk 275 1 14
1420180 NA randomDot NA NA 381.740000000049 37 rdk 276 1 14
1420180 NA randomDot NA NA 562.5 39 rdk 398 1 14
1420180 NA randomDot NA NA 367.320000000007 39 rdk 399 1 14
1420180 NA randomDot NA NA 395.780000000028 39 rdk 400 1 14
1420180 NA randomDot NA NA 433.935000000056 39 rdk 401 1 14
1420180 NA randomDot NA NA 343.195000000007 37 rdk 402 1 14
1420199 NA randomDot NA NA 1865.14999999781 39 rdk 12 1 14
1420199 NA randomDot NA NA 1221.00999997929 37 rdk 13 1 14
1420199 NA randomDot NA NA 1027.32999998261 37 rdk 14 1 14
1420199 NA randomDot NA NA 865.915000002133 37 rdk 15 1 14
1420199 NA randomDot NA NA 613.289999979315 39 rdk 16 1 14
1420199 NA randomDot NA NA 849.275000015041 39 rdk 17 1 14
1420199 NA randomDot NA NA 1010.11999999173 39 rdk 131 1 14
1420199 NA randomDot NA NA 949.185000004945 37 rdk 132 1 14
1420199 NA randomDot NA NA 881.469999992987 37 rdk 133 1 14
1420199 NA randomDot NA NA 805.850000004284 39 rdk 134 1 14
1420199 NA randomDot NA NA 798.64500000258 37 rdk 135 1 14
1420199 NA randomDot NA NA 1934.58000000101 39 rdk 224 1 14
1420199 NA randomDot NA NA 1207.72500001476 37 rdk 225 1 14
1420199 NA randomDot NA NA 1050.96500000218 37 rdk 226 1 14
1420199 NA randomDot NA NA 878.610000014305 39 rdk 227 1 14
1420199 NA randomDot NA NA 747.444999986328 37 rdk 228 1 14
1420199 NA randomDot NA NA 1505.0250000204 39 rdk 332 1 14
1420199 NA randomDot NA NA 640.225000010105 37 rdk 333 1 14
1420199 NA randomDot NA NA 789.690000005066 37 rdk 334 1 14
1420199 NA randomDot NA NA 719.535000011092 39 rdk 335 1 14
1420199 NA randomDot NA NA 656.220000004396 37 rdk 336 1 14
1420199 NA randomDot NA NA 1401.53500001179 39 rdk 398 1 14
1420199 NA randomDot NA NA 909.274999983609 37 rdk 399 1 14
1420199 NA randomDot NA NA 695.02499999362 37 rdk 400 1 14
1420199 NA randomDot NA NA 917.409999994561 39 rdk 401 1 14
1420199 NA randomDot NA NA 583.579999976791 37 rdk 402 1 14
1420580 NA randomDot NA NA 1221.01500001736 37 rdk 12 1 14
1420580 NA randomDot NA NA 532.850000017788 37 rdk 13 1 14
1420580 NA randomDot NA NA 549.175000051036 37 rdk 14 1 14
1420580 NA randomDot NA NA 492.359999974724 39 rdk 15 1 14
1420580 NA randomDot NA NA 438.359999970999 39 rdk 16 1 14
1420580 NA randomDot NA NA 440.304999996442 39 rdk 17 1 14
1420580 NA randomDot NA NA 808.835000032559 37 rdk 95 1 14
1420580 NA randomDot NA NA 546.235000016168 37 rdk 96 1 14
1420580 NA randomDot NA NA 587.080000026617 39 rdk 97 1 14
1420580 NA randomDot NA NA 462.564999994356 39 rdk 98 1 14
1420580 NA randomDot NA NA 474.719999998342 37 rdk 99 1 14
1420580 NA randomDot NA NA 687.77499999851 37 rdk 245 1 14
1420580 NA randomDot NA NA 474.234999972396 37 rdk 246 1 14
1420580 NA randomDot NA NA 416.124999988824 39 rdk 247 1 14
1420580 NA randomDot NA NA 412.079999980051 39 rdk 248 1 14
1420580 NA randomDot NA NA 536.965000035707 37 rdk 249 1 14
1420580 NA randomDot NA NA 618.929999996908 37 rdk 314 1 14
1420580 NA randomDot NA NA 408.455000026152 37 rdk 315 1 14
1420580 NA randomDot NA NA 347.940000006929 39 rdk 316 1 14
1420580 NA randomDot NA NA 392.500000016298 39 rdk 317 1 14
1420580 NA randomDot NA NA 429.854999994859 37 rdk 318 1 14
1420580 NA randomDot NA NA 585.569999995641 37 rdk 398 1 14
1420580 NA randomDot NA NA 384.820000035688 37 rdk 399 1 14
1420580 NA randomDot NA NA 303.684999991674 39 rdk 400 1 14
1420580 NA randomDot NA NA 315.154999960214 39 rdk 401 1 14
1420580 NA randomDot NA NA 335.515000042506 37 rdk 402 1 14
1420622 NA randomDot NA NA 1790.42500024661 37 rdk 12 1 14
1420622 NA randomDot NA NA 768.269999884069 39 rdk 13 1 14
1420622 NA randomDot NA NA 872.870000079274 39 rdk 14 1 14
1420622 NA randomDot NA NA 568.010000046343 37 rdk 15 1 14
1420622 NA randomDot NA NA 506.774999666959 39 rdk 16 1 14
1420622 NA randomDot NA NA 462.729999795556 37 rdk 17 1 14
1420622 NA randomDot NA NA 1444.3649998866 37 rdk 92 1 14
1420622 NA randomDot NA NA 1011.08499988914 39 rdk 93 1 14
1420622 NA randomDot NA NA 754.894999787211 37 rdk 94 1 14
1420622 NA randomDot NA NA 746.16999970749 39 rdk 95 1 14
1420622 NA randomDot NA NA 718.900000210851 37 rdk 96 1 14
1420622 NA randomDot NA NA 1370.52499968559 37 rdk 185 1 14
1420622 NA randomDot NA NA 637.229999992996 39 rdk 186 1 14
1420622 NA randomDot NA NA 605.290000326931 37 rdk 187 1 14
1420622 NA randomDot NA NA 636.780000291765 39 rdk 188 1 14
1420622 NA randomDot NA NA 670.990000013262 37 rdk 189 1 14
1420622 NA randomDot NA NA 1626.26500008628 37 rdk 299 1 14
1420622 NA randomDot NA NA 647.934999782592 39 rdk 300 1 14
1420622 NA randomDot NA NA 586.159999947995 37 rdk 301 1 14
1420622 NA randomDot NA NA 644.589999690652 39 rdk 302 1 14
1420622 NA randomDot NA NA 682.770000305027 37 rdk 303 1 14
1420622 NA randomDot NA NA 1525.77000018209 37 rdk 398 1 14
1420622 NA randomDot NA NA 661.504999734461 39 rdk 399 1 14
1420622 NA randomDot NA NA 583.769999910146 37 rdk 400 1 14
1420622 NA randomDot NA NA 919.724999926984 39 rdk 401 1 14
1420622 NA randomDot NA NA 671.47000040859 37 rdk 402 1 14
1422463 NA randomDot NA NA -1 -1 rdk 12 0 14
1422463 NA randomDot NA NA -1 -1 rdk 13 0 14
1422463 NA randomDot NA NA -1 -1 rdk 14 0 14
1422463 NA randomDot NA NA -1 -1 rdk 15 0 14
1422463 NA randomDot NA NA -1 -1 rdk 16 0 14
1422463 NA randomDot NA NA -1 -1 rdk 17 0 14
1422463 NA randomDot NA NA -1 -1 rdk 110 0 14
1422463 NA randomDot NA NA 1264.9199999978 37 rdk 111 1 14
1422463 NA randomDot NA NA 594.349999999395 39 rdk 112 1 14
1422463 NA randomDot NA NA 543.49000000002 37 rdk 113 1 14
1422463 NA randomDot NA NA 700.795000000653 39 rdk 114 1 14
1422463 NA randomDot NA NA 1987.92000000319 39 rdk 245 1 14
1422463 NA randomDot NA NA 509.709999998449 37 rdk 246 1 14
1422463 NA randomDot NA NA 428.875000001455 39 rdk 247 1 14
1422463 NA randomDot NA NA 462.299999999232 37 rdk 248 1 14
1422463 NA randomDot NA NA 520.609999999637 39 rdk 249 1 14
1422463 NA randomDot NA NA 1542.45499999891 39 rdk 314 1 14
1422463 NA randomDot NA NA 702.320000000356 37 rdk 315 1 14
1422463 NA randomDot NA NA 620.539999999863 39 rdk 316 1 14
1422463 NA randomDot NA NA 553.439999999711 37 rdk 317 1 14
1422463 NA randomDot NA NA 542.810000002617 39 rdk 318 1 14
1422463 NA randomDot NA NA 786.370000001625 39 rdk 398 1 14
1422463 NA randomDot NA NA 572.830000000948 37 rdk 399 1 14
1422463 NA randomDot NA NA 530.779999997292 39 rdk 400 1 14
1422463 NA randomDot NA NA 487.625000001572 37 rdk 401 1 14
1422463 NA randomDot NA NA 510.34499999875 39 rdk 402 1 14
1422465 NA randomDot NA NA 1746.76999996882 37 rdk 12 1 14
1422465 NA randomDot NA NA 1234.68999995384 37 rdk 13 1 14
1422465 NA randomDot NA NA 617.130000027828 39 rdk 14 1 14
1422465 NA randomDot NA NA 610.779999988154 37 rdk 15 1 14
1422465 NA randomDot NA NA 458.17499991972 39 rdk 16 1 14
1422465 NA randomDot NA NA 597.745000035502 39 rdk 17 1 14
1422465 NA randomDot NA NA 1878.84999997914 39 rdk 113 1 14
1422465 NA randomDot NA NA 1027.74000004865 39 rdk 114 1 14
1422465 NA randomDot NA NA 684.5350000076 39 rdk 115 1 14
1422465 NA randomDot NA NA 1129.58499998786 39 rdk 116 1 14
1422465 NA randomDot NA NA 1223.60500006471 37 rdk 117 1 14
1422465 NA randomDot NA NA 1583.34000001196 39 rdk 209 1 14
1422465 NA randomDot NA NA 684.759999974631 39 rdk 210 1 14
1422465 NA randomDot NA NA 613.679999951273 39 rdk 211 1 14
1422465 NA randomDot NA NA 677.960000000894 39 rdk 212 1 14
1422465 NA randomDot NA NA 662.955000065267 37 rdk 213 1 14
1422465 NA randomDot NA NA -1 -1 rdk 302 0 14
1422465 NA randomDot NA NA -1 -1 rdk 303 0 14
1422465 NA randomDot NA NA 1683.84000007063 39 rdk 304 1 14
1422465 NA randomDot NA NA 688.979999977164 39 rdk 305 1 14
1422465 NA randomDot NA NA 735.805000062101 37 rdk 306 1 14
1422465 NA randomDot NA NA 984.049999970011 39 rdk 398 1 14
1422465 NA randomDot NA NA 758.615000057034 39 rdk 399 1 14
1422465 NA randomDot NA NA 664.119999972172 39 rdk 400 1 14
1422465 NA randomDot NA NA 709.954999969341 39 rdk 401 1 14
1422465 NA randomDot NA NA 764.210000052117 37 rdk 402 1 14
1422466 NA randomDot NA NA 1542.6649999572 39 rdk 12 1 14
1422466 NA randomDot NA NA 849.775000009686 39 rdk 13 1 14
1422466 NA randomDot NA NA 629.06499998644 37 rdk 14 1 14
1422466 NA randomDot NA NA 618.075000005774 37 rdk 15 1 14
1422466 NA randomDot NA NA 530.804999987595 39 rdk 16 1 14
1422466 NA randomDot NA NA 675.104999972973 37 rdk 17 1 14
1422466 NA randomDot NA NA -1 -1 rdk 122 0 14
1422466 NA randomDot NA NA 313.964999979362 37 rdk 123 1 14
1422466 NA randomDot NA NA 584.205000021029 37 rdk 124 1 14
1422466 NA randomDot NA NA 773.82999996189 39 rdk 125 1 14
1422466 NA randomDot NA NA 432.625000015832 39 rdk 126 1 14
1422466 NA randomDot NA NA -1 -1 rdk 227 0 14
1422466 NA randomDot NA NA 270.309999992605 37 rdk 228 1 14
1422466 NA randomDot NA NA 452.079999959096 37 rdk 229 1 14
1422466 NA randomDot NA NA 1112.06999997376 39 rdk 230 1 14
1422466 NA randomDot NA NA 439.735000021756 39 rdk 231 1 14
1422466 NA randomDot NA NA -1 -1 rdk 302 0 14
1422466 NA randomDot NA NA 525.674999982584 37 rdk 303 1 14
1422466 NA randomDot NA NA 352.314999967348 37 rdk 304 1 14
1422466 NA randomDot NA NA 373.604999971576 37 rdk 305 0 14
1422466 NA randomDot NA NA 471.189999952912 39 rdk 306 1 14
1422466 NA randomDot NA NA 1621.04500003625 37 rdk 398 1 14
1422466 NA randomDot NA NA 511.349999986123 37 rdk 399 1 14
1422466 NA randomDot NA NA 434.824999945704 37 rdk 400 1 14
1422466 NA randomDot NA NA 560.630000021774 39 rdk 401 1 14
1422466 NA randomDot NA NA 342.164999980014 39 rdk 402 1 14
1422472 NA randomDot NA NA 1936.49000000005 37 rdk 12 1 14
1422472 NA randomDot NA NA 1399.93999999569 39 rdk 13 1 14
1422472 NA randomDot NA NA 1144.55499999895 39 rdk 14 1 14
1422472 NA randomDot NA NA 1304.30499999784 37 rdk 15 1 14
1422472 NA randomDot NA NA 1237.37499999697 37 rdk 16 1 14
1422472 NA randomDot NA NA 1013.42000000295 39 rdk 17 1 14
1422472 NA randomDot NA NA 1726.8200000035 39 rdk 98 1 14
1422472 NA randomDot NA NA 764.400000000023 39 rdk 99 1 14
1422472 NA randomDot NA NA 1103.44999999506 37 rdk 100 1 14
1422472 NA randomDot NA NA 708.924999998999 37 rdk 101 1 14
1422472 NA randomDot NA NA 1926.86500000127 37 rdk 102 1 14
1422472 NA randomDot NA NA 1494.35499999527 39 rdk 203 1 14
1422472 NA randomDot NA NA 718.140000004496 39 rdk 204 1 14
1422472 NA randomDot NA NA 987.365000000864 37 rdk 205 1 14
1422472 NA randomDot NA NA 898.789999999281 37 rdk 206 1 14
1422472 NA randomDot NA NA 826.809999998659 37 rdk 207 1 14
1422472 NA randomDot NA NA 1680.8749999982 39 rdk 323 1 14
1422472 NA randomDot NA NA 704.460000000836 39 rdk 324 1 14
1422472 NA randomDot NA NA 900.28500000335 37 rdk 325 1 14
1422472 NA randomDot NA NA 710.17999999458 37 rdk 326 1 14
1422472 NA randomDot NA NA 821.700000000419 37 rdk 327 1 14
1422472 NA randomDot NA NA 1439.89499999589 39 rdk 398 1 14
1422472 NA randomDot NA NA 693.144999997457 39 rdk 399 1 14
1422472 NA randomDot NA NA 869.229999996605 37 rdk 400 1 14
1422472 NA randomDot NA NA 649.595000002591 37 rdk 401 1 14
1422472 NA randomDot NA NA 818.750000005821 37 rdk 402 1 14
1459007 NA randomDot NA NA -1 -1 rdk 12 0 15
1459007 NA randomDot NA NA -1 -1 rdk 13 0 15
1459007 NA randomDot NA NA 1039.09000009298 37 rdk 14 1 15
1459007 NA randomDot NA NA 682.314999867231 37 rdk 15 1 15
1459007 NA randomDot NA NA 611.610000021756 39 rdk 16 1 15
1459007 NA randomDot NA NA 575.015000067651 39 rdk 17 1 15
1459007 NA randomDot NA NA 789.350000210106 37 rdk 116 1 15
1459007 NA randomDot NA NA 597.085000015795 39 rdk 117 1 15
1459007 NA randomDot NA NA 891.665000002831 39 rdk 118 1 15
1459007 NA randomDot NA NA 897.619999945164 39 rdk 119 1 15
1459007 NA randomDot NA NA 584.915000014007 37 rdk 120 1 15
1459007 NA randomDot NA NA 1209.79999983683 37 rdk 194 1 15
1459007 NA randomDot NA NA 669.495000038296 39 rdk 195 1 15
1459007 NA randomDot NA NA 766.880000010133 39 rdk 196 1 15
1459007 NA randomDot NA NA 692.865000106394 39 rdk 197 1 15
1459007 NA randomDot NA NA 606.949999928474 37 rdk 198 1 15
1459007 NA randomDot NA NA 1163.57500012964 37 rdk 281 1 15
1459007 NA randomDot NA NA 590.429999865592 39 rdk 282 1 15
1459007 NA randomDot NA NA 848.664999939501 39 rdk 283 1 15
1459007 NA randomDot NA NA 717.149999924004 39 rdk 284 1 15
1459007 NA randomDot NA NA 526.814999990165 37 rdk 285 1 15
1459007 NA randomDot NA NA 1022.42999989539 37 rdk 398 1 15
1459007 NA randomDot NA NA 500.65500009805 39 rdk 399 1 15
1459007 NA randomDot NA NA 711.385000031441 39 rdk 400 1 15
1459007 NA randomDot NA NA 686.819999944419 39 rdk 401 1 15
1459007 NA randomDot NA NA 568.489999976009 37 rdk 402 1 15
1459002 NA randomDot NA NA 1477.33499994501 37 rdk 12 1 15
1459002 NA randomDot NA NA 599.53000000678 39 rdk 13 1 15
1459002 NA randomDot NA NA 783.51500001736 37 rdk 14 1 15
1459002 NA randomDot NA NA 781.089999945834 37 rdk 15 1 15
1459002 NA randomDot NA NA 570.985000114888 39 rdk 16 1 15
1459002 NA randomDot NA NA 814.465000061318 39 rdk 17 1 15
1459002 NA randomDot NA NA 1513.71500012465 37 rdk 116 1 15
1459002 NA randomDot NA NA 517.155000008643 39 rdk 117 1 15
1459002 NA randomDot NA NA 606.340000173077 39 rdk 118 1 15
1459002 NA randomDot NA NA 707.829999970272 39 rdk 119 1 15
1459002 NA randomDot NA NA 664.649999933317 39 rdk 120 1 15
1459002 NA randomDot NA NA 897.074999986216 37 rdk 206 1 15
1459002 NA randomDot NA NA 597.860000096262 39 rdk 207 1 15
1459002 NA randomDot NA NA 733.525000046939 39 rdk 208 1 15
1459002 NA randomDot NA NA 654.234999790788 39 rdk 209 1 15
1459002 NA randomDot NA NA 714.739999966696 39 rdk 210 1 15
1459002 NA randomDot NA NA 1856.13500000909 37 rdk 332 1 15
1459002 NA randomDot NA NA 625.109999906272 39 rdk 333 1 15
1459002 NA randomDot NA NA 612.140000099316 39 rdk 334 1 15
1459002 NA randomDot NA NA 572.759999893606 39 rdk 335 1 15
1459002 NA randomDot NA NA 488.295000046492 39 rdk 336 1 15
1459002 NA randomDot NA NA 1469.4999998901 37 rdk 398 1 15
1459002 NA randomDot NA NA 428.610000060871 39 rdk 399 1 15
1459002 NA randomDot NA NA 841.439999872819 39 rdk 400 1 15
1459002 NA randomDot NA NA 530.585000058636 39 rdk 401 1 15
1459002 NA randomDot NA NA 448.689999990165 39 rdk 402 1 15
1459009 NA randomDot NA NA 1265.94000000114 39 rdk 12 1 15
1459009 NA randomDot NA NA 835.380000000441 37 rdk 13 1 15
1459009 NA randomDot NA NA -1 -1 rdk 14 0 15
1459009 NA randomDot NA NA 1307.95500000022 37 rdk 15 0 15
1459009 NA randomDot NA NA 743.295000000217 39 rdk 16 0 15
1459009 NA randomDot NA NA 1227.47000000163 39 rdk 17 1 15
1459009 NA randomDot NA NA 704.480000000331 37 rdk 140 1 15
1459009 NA randomDot NA NA 1583.70999999897 37 rdk 141 0 15
1459009 NA randomDot NA NA 789.355000000796 39 rdk 142 0 15
1459009 NA randomDot NA NA 942.924999999377 39 rdk 143 0 15
1459009 NA randomDot NA NA 849.150000001828 37 rdk 144 0 15
1459009 NA randomDot NA NA 715.909999998985 37 rdk 218 1 15
1459009 NA randomDot NA NA 659.854999998061 37 rdk 219 0 15
1459009 NA randomDot NA NA 749.210000001767 39 rdk 220 0 15
1459009 NA randomDot NA NA 872.329999998328 39 rdk 221 0 15
1459009 NA randomDot NA NA 761.329999997572 37 rdk 222 0 15
1459009 NA randomDot NA NA 868.449999998149 39 rdk 311 0 15
1459009 NA randomDot NA NA 703.684999996738 37 rdk 312 0 15
1459009 NA randomDot NA NA 815.744999999879 39 rdk 313 0 15
1459009 NA randomDot NA NA 893.799999998009 39 rdk 314 0 15
1459009 NA randomDot NA NA 661.039999999048 37 rdk 315 0 15
1459009 NA randomDot NA NA -1 -1 rdk 398 0 15
1459009 NA randomDot NA NA 1611.92499999743 37 rdk 399 0 15
1459009 NA randomDot NA NA 1485.99000000104 37 rdk 400 1 15
1459009 NA randomDot NA NA 1270.07999999844 37 rdk 401 1 15
1459009 NA randomDot NA NA 1062.90499999886 37 rdk 402 0 15
1459001 NA randomDot NA NA -1 -1 rdk 12 0 15
1459001 NA randomDot NA NA 1859.77999999886 39 rdk 13 1 15
1459001 NA randomDot NA NA 511.06499999878 37 rdk 14 1 15
1459001 NA randomDot NA NA 486.040000003413 39 rdk 15 0 15
1459001 NA randomDot NA NA 550.430000002962 39 rdk 16 1 15
1459001 NA randomDot NA NA 1348.81999999925 39 rdk 17 1 15
1459001 NA randomDot NA NA 868.174999995972 37 rdk 95 1 15
1459001 NA randomDot NA NA 677.190000002156 37 rdk 96 1 15
1459001 NA randomDot NA NA 475.59000000183 39 rdk 97 1 15
1459001 NA randomDot NA NA 837.975000002189 39 rdk 98 1 15
1459001 NA randomDot NA NA 677.689999996801 39 rdk 99 1 15
1459001 NA randomDot NA NA 1702.65000000654 39 rdk 188 0 15
1459001 NA randomDot NA NA 1592.78500000073 37 rdk 189 1 15
1459001 NA randomDot NA NA -1 -1 rdk 190 0 15
1459001 NA randomDot NA NA 1186.76499999128 39 rdk 191 1 15
1459001 NA randomDot NA NA 908.125000001746 39 rdk 192 1 15
1459001 NA randomDot NA NA 1212.83000000403 39 rdk 278 0 15
1459001 NA randomDot NA NA -1 -1 rdk 279 0 15
1459001 NA randomDot NA NA 1430.47500000102 39 rdk 280 1 15
1459001 NA randomDot NA NA 654.249999992317 39 rdk 281 1 15
1459001 NA randomDot NA NA 1067.51500000246 37 rdk 282 0 15
1459001 NA randomDot NA NA 877.299999992829 37 rdk 398 1 15
1459001 NA randomDot NA NA 964.959999997518 39 rdk 399 0 15
1459001 NA randomDot NA NA 881.314999991446 37 rdk 400 0 15
1459001 NA randomDot NA NA 949.225000003935 37 rdk 401 0 15
1459001 NA randomDot NA NA 1169.41000000224 37 rdk 402 0 15
1459003 NA randomDot NA NA -1 -1 rdk 12 0 15
1459003 NA randomDot NA NA 740.020000026561 39 rdk 13 1 15
1459003 NA randomDot NA NA 658.850000007078 37 rdk 14 1 15
1459003 NA randomDot NA NA 1396.56000002287 37 rdk 15 1 15
1459003 NA randomDot NA NA 646.60500001628 39 rdk 16 1 15
1459003 NA randomDot NA NA 1494.75499999244 37 rdk 17 0 15
1459003 NA randomDot NA NA 1650.9050000459 39 rdk 95 1 15
1459003 NA randomDot NA NA 566.02499994915 37 rdk 96 1 15
1459003 NA randomDot NA NA 975.839999970049 37 rdk 97 1 15
1459003 NA randomDot NA NA 805.625000037253 37 rdk 98 1 15
1459003 NA randomDot NA NA 567.225000006147 39 rdk 99 1 15
1459003 NA randomDot NA NA 1856.19999992196 39 rdk 188 1 15
1459003 NA randomDot NA NA 638.549999915995 37 rdk 189 1 15
1459003 NA randomDot NA NA 723.039999953471 37 rdk 190 1 15
1459003 NA randomDot NA NA 1285.73999996297 37 rdk 191 1 15
1459003 NA randomDot NA NA 536.270000040531 39 rdk 192 1 15
1459003 NA randomDot NA NA 1222.36000001431 39 rdk 317 1 15
1459003 NA randomDot NA NA 556.940000038594 37 rdk 318 1 15
1459003 NA randomDot NA NA 720.349999959581 37 rdk 319 1 15
1459003 NA randomDot NA NA 767.639999976382 37 rdk 320 1 15
1459003 NA randomDot NA NA 517.870000097901 39 rdk 321 1 15
1459003 NA randomDot NA NA 1304.38500002492 39 rdk 398 1 15
1459003 NA randomDot NA NA 950.710000004619 37 rdk 399 1 15
1459003 NA randomDot NA NA 1460.19499993417 37 rdk 400 1 15
1459003 NA randomDot NA NA 1052.8199999826 37 rdk 401 1 15
1459003 NA randomDot NA NA 656.084999907762 39 rdk 402 1 15
1459013 NA randomDot NA NA 940 39 rdk 12 1 15
1459013 NA randomDot NA NA 1746 39 rdk 13 1 15
1459013 NA randomDot NA NA 1722 37 rdk 14 1 15
1459013 NA randomDot NA NA 1848 39 rdk 15 1 15
1459013 NA randomDot NA NA 1322 37 rdk 16 1 15
1459013 NA randomDot NA NA 1154 37 rdk 17 1 15
1459013 NA randomDot NA NA -1 -1 rdk 98 0 15
1459013 NA randomDot NA NA 47 39 rdk 99 0 15
1459013 NA randomDot NA NA 1347 39 rdk 100 1 15
1459013 NA randomDot NA NA 1074 37 rdk 101 1 15
1459013 NA randomDot NA NA 763 37 rdk 102 1 15
1459013 NA randomDot NA NA 931 39 rdk 188 1 15
1459013 NA randomDot NA NA 602 37 rdk 189 1 15
1459013 NA randomDot NA NA 543 39 rdk 190 1 15
1459013 NA randomDot NA NA 502 37 rdk 191 1 15
1459013 NA randomDot NA NA 521 37 rdk 192 1 15
1459013 NA randomDot NA NA 1241 39 rdk 332 1 15
1459013 NA randomDot NA NA 491 37 rdk 333 1 15
1459013 NA randomDot NA NA 511 39 rdk 334 1 15
1459013 NA randomDot NA NA 575 37 rdk 335 1 15
1459013 NA randomDot NA NA 498 37 rdk 336 1 15
1459013 NA randomDot NA NA 1780 39 rdk 398 1 15
1459013 NA randomDot NA NA 577 37 rdk 399 1 15
1459013 NA randomDot NA NA 551 39 rdk 400 1 15
1459013 NA randomDot NA NA 526 37 rdk 401 1 15
1459013 NA randomDot NA NA 572 37 rdk 402 1 15
1459029 NA randomDot NA NA 1429.44500000158 37 rdk 12 1 15
1459029 NA randomDot NA NA 1336.50499999931 37 rdk 13 1 15
1459029 NA randomDot NA NA 813.815000001341 39 rdk 14 1 15
1459029 NA randomDot NA NA 723.214999998163 39 rdk 15 1 15
1459029 NA randomDot NA NA 1109.45000000356 39 rdk 16 1 15
1459029 NA randomDot NA NA 747.739999998885 37 rdk 17 1 15
1459029 NA randomDot NA NA -1 -1 rdk 125 0 15
1459029 NA randomDot NA NA 577.03500000207 39 rdk 126 1 15
1459029 NA randomDot NA NA 573.959999994258 39 rdk 127 1 15
1459029 NA randomDot NA NA 650.204999998095 39 rdk 128 1 15
1459029 NA randomDot NA NA 492.119999995339 39 rdk 129 1 15
1459029 NA randomDot NA NA -1 -1 rdk 239 0 15
1459029 NA randomDot NA NA 536.735000001499 39 rdk 240 1 15
1459029 NA randomDot NA NA 478.490000001329 39 rdk 241 1 15
1459029 NA randomDot NA NA 637.190000001283 39 rdk 242 1 15
1459029 NA randomDot NA NA 498.049999994691 39 rdk 243 1 15
1459029 NA randomDot NA NA 1552.47499999678 37 rdk 326 1 15
1459029 NA randomDot NA NA 748.959999997169 39 rdk 327 1 15
1459029 NA randomDot NA NA 709.11999999953 39 rdk 328 1 15
1459029 NA randomDot NA NA 725.744999996095 39 rdk 329 1 15
1459029 NA randomDot NA NA 785.485000000335 39 rdk 330 1 15
1459029 NA randomDot NA NA -1 -1 rdk 398 0 15
1459029 NA randomDot NA NA 1146.4049999995 39 rdk 399 1 15
1459029 NA randomDot NA NA 493.195000002743 39 rdk 400 1 15
1459029 NA randomDot NA NA 418.460000000778 39 rdk 401 1 15
1459029 NA randomDot NA NA 430.419999996957 39 rdk 402 1 15
1458992 NA randomDot NA NA 1254.69500012696 37 rdk 12 1 15
1458992 NA randomDot NA NA 755.774999968708 39 rdk 13 1 15
1458992 NA randomDot NA NA 745.839999988675 39 rdk 14 1 15
1458992 NA randomDot NA NA 637.199999997392 37 rdk 15 1 15
1458992 NA randomDot NA NA 731.469999998808 39 rdk 16 1 15
1458992 NA randomDot NA NA 674.954999936745 37 rdk 17 1 15
1458992 NA randomDot NA NA 1514.83500003815 37 rdk 149 1 15
1458992 NA randomDot NA NA 1413.07000000961 37 rdk 150 1 15
1458992 NA randomDot NA NA 822.790000122041 39 rdk 151 1 15
1458992 NA randomDot NA NA 879.239999921992 37 rdk 152 1 15
1458992 NA randomDot NA NA 814.10999991931 39 rdk 153 1 15
1458992 NA randomDot NA NA 1298.20500011556 37 rdk 242 1 15
1458992 NA randomDot NA NA 826.305000111461 37 rdk 243 1 15
1458992 NA randomDot NA NA 679.109999909997 39 rdk 244 1 15
1458992 NA randomDot NA NA 649.934999877587 37 rdk 245 1 15
1458992 NA randomDot NA NA 645.000000018626 39 rdk 246 1 15
1458992 NA randomDot NA NA 987.414999864995 37 rdk 329 1 15
1458992 NA randomDot NA NA 716.264999937266 37 rdk 330 1 15
1458992 NA randomDot NA NA 570.365000050515 39 rdk 331 1 15
1458992 NA randomDot NA NA 808.770000003278 37 rdk 332 1 15
1458992 NA randomDot NA NA 458.910000044852 39 rdk 333 1 15
1458992 NA randomDot NA NA 966.264999937266 37 rdk 398 1 15
1458992 NA randomDot NA NA 636.345000006258 37 rdk 399 1 15
1458992 NA randomDot NA NA 817.909999983385 39 rdk 400 1 15
1458992 NA randomDot NA NA 590.360000031069 37 rdk 401 1 15
1458992 NA randomDot NA NA 449.310000054538 39 rdk 402 1 15
1459018 NA randomDot NA NA 1241.64999998175 39 rdk 12 1 15
1459018 NA randomDot NA NA 1839.61499994621 37 rdk 13 1 15
1459018 NA randomDot NA NA 1064.56500000786 37 rdk 14 1 15
1459018 NA randomDot NA NA 779.125000000931 39 rdk 15 1 15
1459018 NA randomDot NA NA 728.970000054687 39 rdk 16 1 15
1459018 NA randomDot NA NA 766.915000043809 37 rdk 17 1 15
1459018 NA randomDot NA NA 1607.88999998476 37 rdk 95 1 15
1459018 NA randomDot NA NA 565.530000021681 39 rdk 96 1 15
1459018 NA randomDot NA NA 526.694999891333 37 rdk 97 1 15
1459018 NA randomDot NA NA 1060.380000039 37 rdk 98 1 15
1459018 NA randomDot NA NA 538.899999926798 39 rdk 99 1 15
1459018 NA randomDot NA NA 1941.3100000238 37 rdk 236 1 15
1459018 NA randomDot NA NA 692.969999974594 39 rdk 237 1 15
1459018 NA randomDot NA NA 632.600000011735 37 rdk 238 1 15
1459018 NA randomDot NA NA 790.920000057667 37 rdk 239 1 15
1459018 NA randomDot NA NA 609.049999970011 39 rdk 240 1 15
1459018 NA randomDot NA NA 1519.57499992568 37 rdk 326 1 15
1459018 NA randomDot NA NA 954.570000059903 39 rdk 327 1 15
1459018 NA randomDot NA NA 529.25999998115 37 rdk 328 1 15
1459018 NA randomDot NA NA 683.285000035539 37 rdk 329 1 15
1459018 NA randomDot NA NA 721.785000059754 39 rdk 330 1 15
1459018 NA randomDot NA NA 1720.81500000786 37 rdk 398 1 15
1459018 NA randomDot NA NA 581.0899999924 39 rdk 399 1 15
1459018 NA randomDot NA NA 408.739999984391 37 rdk 400 1 15
1459018 NA randomDot NA NA 580.814999993891 37 rdk 401 1 15
1459018 NA randomDot NA NA 647.069999948144 39 rdk 402 1 15
1459024 NA randomDot NA NA 865.955000015674 39 rdk 12 1 15
1459024 NA randomDot NA NA 1124.04999998398 39 rdk 13 1 15
1459024 NA randomDot NA NA 630.639999988489 37 rdk 14 1 15
1459024 NA randomDot NA NA 593.010000011418 37 rdk 15 1 15
1459024 NA randomDot NA NA 571.855000016512 39 rdk 16 1 15
1459024 NA randomDot NA NA 545.045000006212 37 rdk 17 1 15
1459024 NA randomDot NA NA 769.520000001648 37 rdk 83 1 15
1459024 NA randomDot NA NA 706.36499999091 39 rdk 84 1 15
1459024 NA randomDot NA NA 574.475000001257 39 rdk 85 1 15
1459024 NA randomDot NA NA 668.785000016214 39 rdk 86 1 15
1459024 NA randomDot NA NA 754.520000016782 39 rdk 87 1 15
1459024 NA randomDot NA NA 760.559999995166 37 rdk 200 1 15
1459024 NA randomDot NA NA 441.265000001295 39 rdk 201 1 15
1459024 NA randomDot NA NA 484.415000013541 39 rdk 202 1 15
1459024 NA randomDot NA NA 613.879999989877 39 rdk 203 1 15
1459024 NA randomDot NA NA 877.359999984037 39 rdk 204 1 15
1459024 NA randomDot NA NA 832.735000003595 37 rdk 329 1 15
1459024 NA randomDot NA NA 453.379999991739 39 rdk 330 1 15
1459024 NA randomDot NA NA 490.334999980405 39 rdk 331 1 15
1459024 NA randomDot NA NA 509.239999984857 39 rdk 332 1 15
1459024 NA randomDot NA NA 682.28999999701 39 rdk 333 1 15
1459024 NA randomDot NA NA 705.209999985527 37 rdk 398 1 15
1459024 NA randomDot NA NA 471.515000012005 39 rdk 399 1 15
1459024 NA randomDot NA NA 436.944999994012 39 rdk 400 1 15
1459024 NA randomDot NA NA 471.675000007963 39 rdk 401 1 15
1459024 NA randomDot NA NA 930.915000004461 39 rdk 402 1 15
1459047 NA randomDot NA NA 1008.68500000797 37 rdk 12 1 15
1459047 NA randomDot NA NA 637.729999958538 39 rdk 13 1 15
1459047 NA randomDot NA NA 1283.85999996681 39 rdk 14 1 15
1459047 NA randomDot NA NA 1152.63999998569 39 rdk 15 1 15
1459047 NA randomDot NA NA 882.849999994505 37 rdk 16 1 15
1459047 NA randomDot NA NA 998.135000001639 37 rdk 17 1 15
1459047 NA randomDot NA NA 1875.17999997362 37 rdk 101 1 15
1459047 NA randomDot NA NA 1265.95500000985 37 rdk 102 1 15
1459047 NA randomDot NA NA 774.720000044908 39 rdk 103 1 15
1459047 NA randomDot NA NA 801.124999998137 39 rdk 104 1 15
1459047 NA randomDot NA NA 787.750000017695 39 rdk 105 1 15
1459047 NA randomDot NA NA 1591.81499999249 37 rdk 215 1 15
1459047 NA randomDot NA NA 1125.88000000687 37 rdk 216 1 15
1459047 NA randomDot NA NA 1000.57500001276 39 rdk 217 1 15
1459047 NA randomDot NA NA 898.85499997763 39 rdk 218 1 15
1459047 NA randomDot NA NA 1012.85999995889 39 rdk 219 1 15
1459047 NA randomDot NA NA 992.140000045765 37 rdk 326 1 15
1459047 NA randomDot NA NA 1027.36499998719 37 rdk 327 1 15
1459047 NA randomDot NA NA 866.910000040662 39 rdk 328 1 15
1459047 NA randomDot NA NA 851.849999977276 39 rdk 329 1 15
1459047 NA randomDot NA NA 742.680000024848 39 rdk 330 1 15
1459047 NA randomDot NA NA 1164.61999999592 37 rdk 398 1 15
1459047 NA randomDot NA NA 1014.26000002539 37 rdk 399 1 15
1459047 NA randomDot NA NA 885.290000005625 39 rdk 400 1 15
1459047 NA randomDot NA NA 1038.85999997146 39 rdk 401 1 15
1459047 NA randomDot NA NA 1592.62499999022 39 rdk 402 1 15
1459052 NA randomDot NA NA -1 -1 rdk 12 0 15
1459052 NA randomDot NA NA 1195.35999977961 39 rdk 13 1 15
1459052 NA randomDot NA NA 998.300000093877 37 rdk 14 1 15
1459052 NA randomDot NA NA 946.324999909848 37 rdk 15 1 15
1459052 NA randomDot NA NA 853.030000347644 39 rdk 16 1 15
1459052 NA randomDot NA NA 746.405000332743 37 rdk 17 1 15
1459052 NA randomDot NA NA 1325.22499980405 37 rdk 167 1 15
1459052 NA randomDot NA NA 710.960000287741 37 rdk 168 1 15
1459052 NA randomDot NA NA 1197.73499993607 37 rdk 169 1 15
1459052 NA randomDot NA NA 1131.99999975041 37 rdk 170 1 15
1459052 NA randomDot NA NA 849.334999918938 39 rdk 171 1 15
1459052 NA randomDot NA NA 1323.6349998042 37 rdk 236 1 15
1459052 NA randomDot NA NA 991.799999959767 37 rdk 237 1 15
1459052 NA randomDot NA NA 1641.92500011995 37 rdk 238 1 15
1459052 NA randomDot NA NA -1 -1 rdk 239 0 15
1459052 NA randomDot NA NA 942.460000049323 39 rdk 240 1 15
1459052 NA randomDot NA NA -1 -1 rdk 329 0 15
1459052 NA randomDot NA NA 1803.28999971971 37 rdk 330 1 15
1459052 NA randomDot NA NA 741.524999961257 37 rdk 331 1 15
1459052 NA randomDot NA NA 714.745000004768 37 rdk 332 1 15
1459052 NA randomDot NA NA 704.039999749511 39 rdk 333 1 15
1459052 NA randomDot NA NA 1486.41999997199 37 rdk 398 1 15
1459052 NA randomDot NA NA 700.769999995828 37 rdk 399 1 15
1459052 NA randomDot NA NA 738.880000077188 37 rdk 400 1 15
1459052 NA randomDot NA NA 642.359999939799 37 rdk 401 1 15
1459052 NA randomDot NA NA 736.684999894351 39 rdk 402 1 15
1459064 NA randomDot NA NA -1 -1 rdk 12 0 15
1459064 NA randomDot NA NA 2262.00000010431 37 rdk 13 1 15
1459064 NA randomDot NA NA 689.999999944121 39 rdk 14 1 15
1459064 NA randomDot NA NA 591.999999945983 37 rdk 15 1 15
1459064 NA randomDot NA NA 601.000000024214 37 rdk 16 1 15
1459064 NA randomDot NA NA 669.999999925494 39 rdk 17 1 15
1459064 NA randomDot NA NA 990.999999921769 39 rdk 80 1 15
1459064 NA randomDot NA NA 736.99999996461 39 rdk 81 1 15
1459064 NA randomDot NA NA 640.000000130385 39 rdk 82 1 15
1459064 NA randomDot NA NA 567.000000039116 39 rdk 83 1 15
1459064 NA randomDot NA NA 571.999999927357 39 rdk 84 1 15
1459064 NA randomDot NA NA 1099.9999998603 39 rdk 239 1 15
1459064 NA randomDot NA NA 578.999999910593 39 rdk 240 1 15
1459064 NA randomDot NA NA 650.000000139698 39 rdk 241 1 15
1459064 NA randomDot NA NA 623.000000137836 39 rdk 242 1 15
1459064 NA randomDot NA NA 709.999999962747 39 rdk 243 1 15
1459064 NA randomDot NA NA 861.99999996461 39 rdk 311 1 15
1459064 NA randomDot NA NA 1011.00000017323 39 rdk 312 1 15
1459064 NA randomDot NA NA 799.999999813735 39 rdk 313 1 15
1459064 NA randomDot NA NA 733.999999938533 39 rdk 314 1 15
1459064 NA randomDot NA NA 689.999999944121 39 rdk 315 1 15
1459064 NA randomDot NA NA 1591.0000000149 39 rdk 398 1 15
1459064 NA randomDot NA NA 613.000000128523 39 rdk 399 1 15
1459064 NA randomDot NA NA 668.999999994412 39 rdk 400 1 15
1459064 NA randomDot NA NA 780.00000002794 39 rdk 401 1 15
1459064 NA randomDot NA NA 614.999999990687 39 rdk 402 1 15
1459048 NA randomDot NA NA -1 -1 rdk 12 0 15
1459048 NA randomDot NA NA 1691 39 rdk 13 1 15
1459048 NA randomDot NA NA 1359 37 rdk 14 1 15
1459048 NA randomDot NA NA 1643 37 rdk 15 1 15
1459048 NA randomDot NA NA 1568 39 rdk 16 1 15
1459048 NA randomDot NA NA 1128 39 rdk 17 1 15
1459048 NA randomDot NA NA -1 -1 rdk 80 0 15
1459048 NA randomDot NA NA 722 39 rdk 81 0 15
1459048 NA randomDot NA NA 1073 39 rdk 82 1 15
1459048 NA randomDot NA NA 868 37 rdk 83 1 15
1459048 NA randomDot NA NA 847 39 rdk 84 1 15
1459048 NA randomDot NA NA 1898 37 rdk 158 1 15
1459048 NA randomDot NA NA -1 -1 rdk 159 0 15
1459048 NA randomDot NA NA 1059 39 rdk 160 1 15
1459048 NA randomDot NA NA 726 37 rdk 161 1 15
1459048 NA randomDot NA NA 844 39 rdk 162 1 15
1459048 NA randomDot NA NA -1 -1 rdk 299 0 15
1459048 NA randomDot NA NA 1080 37 rdk 300 1 15
1459048 NA randomDot NA NA 667 39 rdk 301 1 15
1459048 NA randomDot NA NA 544 37 rdk 302 1 15
1459048 NA randomDot NA NA 533 39 rdk 303 1 15
1459048 NA randomDot NA NA -1 -1 rdk 398 0 15
1459048 NA randomDot NA NA 1004 37 rdk 399 1 15
1459048 NA randomDot NA NA 547 39 rdk 400 1 15
1459048 NA randomDot NA NA 1309 37 rdk 401 1 15
1459048 NA randomDot NA NA 635 39 rdk 402 1 15
1459057 NA randomDot NA NA -1 -1 rdk 12 0 15
1459057 NA randomDot NA NA -1 -1 rdk 13 0 15
1459057 NA randomDot NA NA 43.6350000018138 39 rdk 14 1 15
1459057 NA randomDot NA NA 1390.60500000051 39 rdk 15 1 15
1459057 NA randomDot NA NA 965.520000001561 37 rdk 16 0 15
1459057 NA randomDot NA NA 1186.47000000055 39 rdk 17 0 15
1459057 NA randomDot NA NA 1466.77500000078 39 rdk 80 1 15
1459057 NA randomDot NA NA 1010.38999999946 39 rdk 81 1 15
1459057 NA randomDot NA NA 689.985000000888 37 rdk 82 1 15
1459057 NA randomDot NA NA 845.329999996466 39 rdk 83 1 15
1459057 NA randomDot NA NA 1004.01000000056 39 rdk 84 1 15
1459057 NA randomDot NA NA 1174.75999999803 39 rdk 239 1 15
1459057 NA randomDot NA NA 905.774999999267 39 rdk 240 1 15
1459057 NA randomDot NA NA 772.635000001173 37 rdk 241 1 15
1459057 NA randomDot NA NA 750.765000000654 39 rdk 242 1 15
1459057 NA randomDot NA NA 967.239999998128 39 rdk 243 1 15
1459057 NA randomDot NA NA 1127.2099999988 39 rdk 332 1 15
1459057 NA randomDot NA NA 1018.7499999993 39 rdk 333 1 15
1459057 NA randomDot NA NA 711.115000001912 37 rdk 334 1 15
1459057 NA randomDot NA NA 1236.70000000123 39 rdk 335 1 15
1459057 NA randomDot NA NA 1090.72999999992 39 rdk 336 1 15
1459057 NA randomDot NA NA 974.084999997984 39 rdk 398 1 15
1459057 NA randomDot NA NA 1016.32500000048 39 rdk 399 1 15
1459057 NA randomDot NA NA 659.700000000128 37 rdk 400 1 15
1459057 NA randomDot NA NA 867.979999999108 39 rdk 401 1 15
1459057 NA randomDot NA NA 870.985000001383 39 rdk 402 1 15
1459697 NA randomDot NA NA -1 -1 rdk 12 0 15
1459697 NA randomDot NA NA 1673.75000000175 39 rdk 13 1 15
1459697 NA randomDot NA NA -1 -1 rdk 14 0 15
1459697 NA randomDot NA NA 718.369999998686 39 rdk 15 1 15
1459697 NA randomDot NA NA 795.034999999189 37 rdk 16 1 15
1459697 NA randomDot NA NA 1045.13999999836 37 rdk 17 1 15
1459697 NA randomDot NA NA 1069.54499999847 39 rdk 83 1 15
1459697 NA randomDot NA NA 604.605000000447 39 rdk 84 1 15
1459697 NA randomDot NA NA 595.984999999928 37 rdk 85 1 15
1459697 NA randomDot NA NA 623.524999999063 39 rdk 86 1 15
1459697 NA randomDot NA NA 1014.87500000076 39 rdk 87 1 15
1459697 NA randomDot NA NA 586.114999998244 39 rdk 167 1 15
1459697 NA randomDot NA NA 793.21500000151 39 rdk 168 1 15
1459697 NA randomDot NA NA 646.669999998267 37 rdk 169 1 15
1459697 NA randomDot NA NA 851.09999999986 39 rdk 170 1 15
1459697 NA randomDot NA NA 844.080000002577 39 rdk 171 1 15
1459697 NA randomDot NA NA 672.520000000135 39 rdk 299 1 15
1459697 NA randomDot NA NA 541.484999997891 39 rdk 300 1 15
1459697 NA randomDot NA NA 608.07500000007 37 rdk 301 1 15
1459697 NA randomDot NA NA 615.420000001905 39 rdk 302 1 15
1459697 NA randomDot NA NA 850.769999997225 39 rdk 303 1 15
1459697 NA randomDot NA NA -1 -1 rdk 398 0 15
1459697 NA randomDot NA NA 769.964999999502 39 rdk 399 1 15
1459697 NA randomDot NA NA 535.514999999548 37 rdk 400 1 15
1459697 NA randomDot NA NA 563.874999999825 39 rdk 401 1 15
1459697 NA randomDot NA NA 711.470000002009 39 rdk 402 1 15
1459696 NA randomDot NA NA -1 -1 rdk 12 0 15
1459696 NA randomDot NA NA -1 -1 rdk 13 0 15
1459696 NA randomDot NA NA -1 -1 rdk 14 0 15
1459696 NA randomDot NA NA -1 -1 rdk 15 0 15
1459696 NA randomDot NA NA 1104.26999998163 37 rdk 16 0 15
1459696 NA randomDot NA NA -1 -1 rdk 17 0 15
1459696 NA randomDot NA NA -1 -1 rdk 107 0 15
1459696 NA randomDot NA NA -1 -1 rdk 108 0 15
1459696 NA randomDot NA NA 1313.9749999973 37 rdk 109 1 15
1459696 NA randomDot NA NA 1054.75500001921 37 rdk 110 1 15
1459696 NA randomDot NA NA 870.829999999842 37 rdk 111 1 15
1459696 NA randomDot NA NA -1 -1 rdk 200 0 15
1459696 NA randomDot NA NA 1363.16000000807 37 rdk 201 1 15
1459696 NA randomDot NA NA 1568.02500001504 37 rdk 202 1 15
1459696 NA randomDot NA NA 1278.86000002036 37 rdk 203 1 15
1459696 NA randomDot NA NA 776.794999983395 37 rdk 204 1 15
1459696 NA randomDot NA NA 1923.50499998429 39 rdk 261 1 15
1459696 NA randomDot NA NA 471.870000008494 37 rdk 262 1 15
1459696 NA randomDot NA NA 656.784999999218 37 rdk 263 1 15
1459696 NA randomDot NA NA 644.36000000569 39 rdk 264 0 15
1459696 NA randomDot NA NA 543.515000026673 37 rdk 265 1 15
1459696 NA randomDot NA NA 1548.26999999932 39 rdk 387 1 15
1459696 NA randomDot NA NA 1319.4749999966 37 rdk 388 1 15
1459696 NA randomDot NA NA 817.024999996647 39 rdk 389 0 15
1459696 NA randomDot NA NA 808.279999997467 37 rdk 390 1 15
1459696 NA randomDot NA NA 743.885000003502 37 rdk 391 1 15
1459706 NA randomDot NA NA -1 -1 rdk 12 0 15
1459706 NA randomDot NA NA 749.030000006314 39 rdk 13 1 15
1459706 NA randomDot NA NA 526.784999994561 39 rdk 14 1 15
1459706 NA randomDot NA NA 499.074999999721 39 rdk 15 1 15
1459706 NA randomDot NA NA 343.454999994719 37 rdk 16 1 15
1459706 NA randomDot NA NA 579.295000003185 39 rdk 17 0 15
1459706 NA randomDot NA NA -1 -1 rdk 149 0 15
1459706 NA randomDot NA NA 999.314999993658 37 rdk 150 1 15
1459706 NA randomDot NA NA 449.304999987362 39 rdk 151 1 15
1459706 NA randomDot NA NA 432.509999984177 37 rdk 152 1 15
1459706 NA randomDot NA NA 531.650000018999 39 rdk 153 1 15
1459706 NA randomDot NA NA 1545.11999999522 37 rdk 236 1 15
1459706 NA randomDot NA NA 681.985000002896 37 rdk 237 1 15
1459706 NA randomDot NA NA 485.249999997905 39 rdk 238 1 15
1459706 NA randomDot NA NA 447.364999999991 37 rdk 239 1 15
1459706 NA randomDot NA NA 498.125000012806 39 rdk 240 1 15
1459706 NA randomDot NA NA 1876.90000000293 37 rdk 332 1 15
1459706 NA randomDot NA NA 469.539999990957 37 rdk 333 1 15
1459706 NA randomDot NA NA 454.020000004675 39 rdk 334 1 15
1459706 NA randomDot NA NA 486.185000016121 37 rdk 335 1 15
1459706 NA randomDot NA NA 470.089999987977 39 rdk 336 1 15
1459706 NA randomDot NA NA -1 -1 rdk 398 0 15
1459706 NA randomDot NA NA 596.850000001723 37 rdk 399 1 15
1459706 NA randomDot NA NA 554.054999985965 39 rdk 400 1 15
1459706 NA randomDot NA NA 472.999999998137 37 rdk 401 1 15
1459706 NA randomDot NA NA 510.069999989355 39 rdk 402 1 15
1459702 NA randomDot NA NA -1 -1 rdk 12 0 15
1459702 NA randomDot NA NA -1 -1 rdk 13 0 15
1459702 NA randomDot NA NA -1 -1 rdk 14 0 15
1459702 NA randomDot NA NA 560 37 rdk 15 1 15
1459702 NA randomDot NA NA 504 39 rdk 16 1 15
1459702 NA randomDot NA NA 466 37 rdk 17 1 15
1459702 NA randomDot NA NA 852 39 rdk 95 1 15
1459702 NA randomDot NA NA 543 39 rdk 96 1 15
1459702 NA randomDot NA NA 578 37 rdk 97 1 15
1459702 NA randomDot NA NA 609 39 rdk 98 1 15
1459702 NA randomDot NA NA 585 39 rdk 99 1 15
1459702 NA randomDot NA NA 1227 39 rdk 185 1 15
1459702 NA randomDot NA NA 1157 39 rdk 186 1 15
1459702 NA randomDot NA NA 971 37 rdk 187 1 15
1459702 NA randomDot NA NA 1248 39 rdk 188 1 15
1459702 NA randomDot NA NA 1277 39 rdk 189 1 15
1459702 NA randomDot NA NA -1 -1 rdk 302 0 15
1459702 NA randomDot NA NA 1026 39 rdk 303 1 15
1459702 NA randomDot NA NA 756 37 rdk 304 1 15
1459702 NA randomDot NA NA 691 39 rdk 305 1 15
1459702 NA randomDot NA NA 567 39 rdk 306 1 15
1459702 NA randomDot NA NA 1648 39 rdk 398 1 15
1459702 NA randomDot NA NA 592 39 rdk 399 1 15
1459702 NA randomDot NA NA 568 37 rdk 400 1 15
1459702 NA randomDot NA NA 535 39 rdk 401 1 15
1459702 NA randomDot NA NA 566 39 rdk 402 1 15
1459708 NA randomDot NA NA 916.304999991553 39 rdk 12 1 15
1459708 NA randomDot NA NA 1091.03500001947 39 rdk 13 1 15
1459708 NA randomDot NA NA 539.965000003576 37 rdk 14 1 15
1459708 NA randomDot NA NA 847.404999978608 37 rdk 15 1 15
1459708 NA randomDot NA NA 490.729999990435 37 rdk 16 1 15
1459708 NA randomDot NA NA 483.689999993658 39 rdk 17 1 15
1459708 NA randomDot NA NA 698.080000001937 39 rdk 86 1 15
1459708 NA randomDot NA NA 497.094999998808 37 rdk 87 1 15
1459708 NA randomDot NA NA 522.330000007059 39 rdk 88 1 15
1459708 NA randomDot NA NA 488.809999980731 39 rdk 89 1 15
1459708 NA randomDot NA NA 417.310000018915 37 rdk 90 1 15
1459708 NA randomDot NA NA 598.839999991469 39 rdk 182 1 15
1459708 NA randomDot NA NA 416.71999997925 37 rdk 183 1 15
1459708 NA randomDot NA NA 389.209999993909 39 rdk 184 1 15
1459708 NA randomDot NA NA 387.18499999959 39 rdk 185 1 15
1459708 NA randomDot NA NA 426.33499999647 37 rdk 186 1 15
1459708 NA randomDot NA NA 725.555000011809 39 rdk 299 1 15
1459708 NA randomDot NA NA 385.720000020228 37 rdk 300 1 15
1459708 NA randomDot NA NA 434.795000008307 39 rdk 301 1 15
1459708 NA randomDot NA NA 455.059999978403 39 rdk 302 1 15
1459708 NA randomDot NA NA 400.114999996731 37 rdk 303 1 15
1459708 NA randomDot NA NA 1455.39000001736 39 rdk 398 1 15
1459708 NA randomDot NA NA 443.425000004936 37 rdk 399 1 15
1459708 NA randomDot NA NA 425.084999995306 39 rdk 400 1 15
1459708 NA randomDot NA NA 393.954999977723 39 rdk 401 1 15
1459708 NA randomDot NA NA 411.995000002207 37 rdk 402 1 15
1459703 NA randomDot NA NA 1771.39999996871 39 rdk 12 1 15
1459703 NA randomDot NA NA -1 -1 rdk 13 0 15
1459703 NA randomDot NA NA 875.419999938458 37 rdk 14 1 15
1459703 NA randomDot NA NA -1 -1 rdk 15 0 15
1459703 NA randomDot NA NA 722.685000044294 39 rdk 16 0 15
1459703 NA randomDot NA NA 829.6599999303 37 rdk 17 0 15
1459703 NA randomDot NA NA 1184.63999999221 39 rdk 158 1 15
1459703 NA randomDot NA NA 1900.85999993607 37 rdk 159 0 15
1459703 NA randomDot NA NA 862.34999995213 37 rdk 160 1 15
1459703 NA randomDot NA NA -1 -1 rdk 161 0 15
1459703 NA randomDot NA NA 177.405000082217 39 rdk 162 0 15
1459703 NA randomDot NA NA 1989.87000004854 39 rdk 245 1 15
1459703 NA randomDot NA NA 1521.01999998558 37 rdk 246 0 15
1459703 NA randomDot NA NA 861.80999991484 37 rdk 247 1 15
1459703 NA randomDot NA NA 1614.13500003982 37 rdk 248 1 15
1459703 NA randomDot NA NA 1395.52999997977 39 rdk 249 0 15
1459703 NA randomDot NA NA 1496.10500002746 37 rdk 317 0 15
1459703 NA randomDot NA NA 675.629999954253 39 rdk 318 1 15
1459703 NA randomDot NA NA 623.924999963492 37 rdk 319 1 15
1459703 NA randomDot NA NA 1212.99999998882 37 rdk 320 1 15
1459703 NA randomDot NA NA 1171.70000006445 37 rdk 321 1 15
1459703 NA randomDot NA NA 1568.79000004847 39 rdk 398 1 15
1459703 NA randomDot NA NA 1056.50500010233 39 rdk 399 1 15
1459703 NA randomDot NA NA 562.540000071749 37 rdk 400 1 15
1459703 NA randomDot NA NA 749.514999915846 37 rdk 401 1 15
1459703 NA randomDot NA NA 985.26500002481 37 rdk 402 1 15
1459767 NA randomDot NA NA 1399.11500000011 39 rdk 12 1 15
1459767 NA randomDot NA NA 690.425000000629 37 rdk 13 1 15
1459767 NA randomDot NA NA 980.804999999236 37 rdk 14 1 15
1459767 NA randomDot NA NA 462.299999999232 39 rdk 15 1 15
1459767 NA randomDot NA NA 423.764999999548 37 rdk 16 1 15
1459767 NA randomDot NA NA 488.420000001439 39 rdk 17 1 15
1459767 NA randomDot NA NA 1546.77000000083 37 rdk 107 1 15
1459767 NA randomDot NA NA 971.744999998948 37 rdk 108 1 15
1459767 NA randomDot NA NA 704.320000000764 37 rdk 109 1 15
1459767 NA randomDot NA NA 510.680000003078 39 rdk 110 1 15
1459767 NA randomDot NA NA 431.27000000095 39 rdk 111 1 15
1459767 NA randomDot NA NA 1086.15999999898 37 rdk 251 1 15
1459767 NA randomDot NA NA 893.899999998976 37 rdk 252 1 15
1459767 NA randomDot NA NA 506.989999998128 37 rdk 253 1 15
1459767 NA randomDot NA NA 480.255000002217 39 rdk 254 1 15
1459767 NA randomDot NA NA 554.465000001015 39 rdk 255 1 15
1459767 NA randomDot NA NA 866.75499999919 37 rdk 326 1 15
1459767 NA randomDot NA NA 762.320000001695 37 rdk 327 1 15
1459767 NA randomDot NA NA 852.409999999683 37 rdk 328 1 15
1459767 NA randomDot NA NA 452.359999999404 39 rdk 329 1 15
1459767 NA randomDot NA NA 470.959999998799 39 rdk 330 1 15
1459767 NA randomDot NA NA 1901.8450000002 37 rdk 398 1 15
1459767 NA randomDot NA NA 586.374999998836 37 rdk 399 1 15
1459767 NA randomDot NA NA 509.559999998426 37 rdk 400 1 15
1459767 NA randomDot NA NA 380.760000000009 39 rdk 401 1 15
1459767 NA randomDot NA NA 450.059999999125 39 rdk 402 1 15
1414933 NA randomDot NA NA -1 -1 rdk 15 0 14
1414933 NA randomDot NA NA 886 39 rdk 16 1 14
1414933 NA randomDot NA NA 726 37 rdk 17 1 14
1414933 NA randomDot NA NA 760 37 rdk 18 1 14
1414933 NA randomDot NA NA 828 37 rdk 19 1 14
1414933 NA randomDot NA NA 712 39 rdk 20 1 14
1414933 NA randomDot NA NA 1072 37 rdk 101 1 14
1414933 NA randomDot NA NA 1378 37 rdk 102 1 14
1414933 NA randomDot NA NA 762 39 rdk 103 1 14
1414933 NA randomDot NA NA 760 37 rdk 104 1 14
1414933 NA randomDot NA NA 750 39 rdk 105 1 14
1414933 NA randomDot NA NA 1542 37 rdk 173 1 14
1414933 NA randomDot NA NA 765 37 rdk 174 1 14
1414933 NA randomDot NA NA 669 39 rdk 175 1 14
1414933 NA randomDot NA NA 712 37 rdk 176 1 14
1414933 NA randomDot NA NA 750 39 rdk 177 1 14
1414933 NA randomDot NA NA 1120 37 rdk 311 1 14
1414933 NA randomDot NA NA 1032 37 rdk 312 1 14
1414933 NA randomDot NA NA 665 39 rdk 313 1 14
1414933 NA randomDot NA NA 891 37 rdk 314 1 14
1414933 NA randomDot NA NA 638 39 rdk 315 1 14
1414933 NA randomDot NA NA 1388 37 rdk 401 1 14
1414933 NA randomDot NA NA 906 37 rdk 402 1 14
1414933 NA randomDot NA NA 695 39 rdk 403 1 14
1414933 NA randomDot NA NA 710 37 rdk 404 1 14
1414933 NA randomDot NA NA 643 39 rdk 405 1 14
1414932 NA randomDot NA NA -1 -1 rdk 15 0 14
1414932 NA randomDot NA NA -1 -1 rdk 16 0 14
1414932 NA randomDot NA NA -1 -1 rdk 17 0 14
1414932 NA randomDot NA NA -1 -1 rdk 18 0 14
1414932 NA randomDot NA NA -1 -1 rdk 19 0 14
1414932 NA randomDot NA NA -1 -1 rdk 20 0 14
1414932 NA randomDot NA NA -1 -1 rdk 86 0 14
1414932 NA randomDot NA NA -1 -1 rdk 87 0 14
1414932 NA randomDot NA NA -1 -1 rdk 88 0 14
1414932 NA randomDot NA NA 1433.71499999193 39 rdk 89 1 14
1414932 NA randomDot NA NA 900.859999994282 37 rdk 90 1 14
1414932 NA randomDot NA NA 828.665000008186 39 rdk 176 1 14
1414932 NA randomDot NA NA 673.284999997122 37 rdk 177 1 14
1414932 NA randomDot NA NA 840.439999999944 37 rdk 178 1 14
1414932 NA randomDot NA NA 616.900000022724 39 rdk 179 1 14
1414932 NA randomDot NA NA 712.369999993825 37 rdk 180 1 14
1414932 NA randomDot NA NA 224.654999998165 39 rdk 323 1 14
1414932 NA randomDot NA NA 762.334999977611 37 rdk 324 1 14
1414932 NA randomDot NA NA 783.355000021402 39 rdk 325 0 14
1414932 NA randomDot NA NA 806.075000000419 37 rdk 326 0 14
1414932 NA randomDot NA NA 1017.56500001648 37 rdk 327 1 14
1414932 NA randomDot NA NA -1 -1 rdk 401 0 14
1414932 NA randomDot NA NA 198.485000000801 37 rdk 402 1 14
1414932 NA randomDot NA NA 1124.15000001783 39 rdk 403 0 14
1414932 NA randomDot NA NA 1063.15000000177 37 rdk 404 0 14
1414932 NA randomDot NA NA 901.435000007041 39 rdk 405 0 14
1420169 NA randomDot NA NA 805.749999824911 39 rdk 15 1 14
1420169 NA randomDot NA NA 871.365000028163 37 rdk 16 1 14
1420169 NA randomDot NA NA 778.35000003688 37 rdk 17 1 14
1420169 NA randomDot NA NA 820.380000164732 39 rdk 18 1 14
1420169 NA randomDot NA NA 702.76500005275 39 rdk 19 1 14
1420169 NA randomDot NA NA 718.374999938533 37 rdk 20 1 14
1420169 NA randomDot NA NA 1695.92999992892 39 rdk 98 1 14
1420169 NA randomDot NA NA 1508.42000008561 39 rdk 99 1 14
1420169 NA randomDot NA NA 645.759999984875 37 rdk 100 1 14
1420169 NA randomDot NA NA 808.530000038445 37 rdk 101 1 14
1420169 NA randomDot NA NA 646.97500015609 37 rdk 102 1 14
1420169 NA randomDot NA NA 1119.98499999754 39 rdk 221 1 14
1420169 NA randomDot NA NA 1430.73499994352 39 rdk 222 1 14
1420169 NA randomDot NA NA 717.935000080615 37 rdk 223 1 14
1420169 NA randomDot NA NA 692.345000104979 37 rdk 224 1 14
1420169 NA randomDot NA NA 637.474999995902 37 rdk 225 1 14
1420169 NA randomDot NA NA 1113.20000002161 39 rdk 293 1 14
1420169 NA randomDot NA NA 964.280000189319 39 rdk 294 1 14
1420169 NA randomDot NA NA 592.960000038147 37 rdk 295 1 14
1420169 NA randomDot NA NA 978.224999969825 37 rdk 296 1 14
1420169 NA randomDot NA NA 740.95999985002 37 rdk 297 1 14
1420169 NA randomDot NA NA 1388.96999997087 39 rdk 401 1 14
1420169 NA randomDot NA NA 1085.98500001244 39 rdk 402 1 14
1420169 NA randomDot NA NA 577.27999985218 37 rdk 403 1 14
1420169 NA randomDot NA NA 633.570000063628 37 rdk 404 1 14
1420169 NA randomDot NA NA 458.849999820814 37 rdk 405 1 14
1420171 NA randomDot NA NA 796.184999999241 39 rdk 15 1 14
1420171 NA randomDot NA NA 918.789999996079 39 rdk 16 1 14
1420171 NA randomDot NA NA 667.51999999542 37 rdk 17 1 14
1420171 NA randomDot NA NA 1105.44500000105 37 rdk 18 1 14
1420171 NA randomDot NA NA 1190.53500000155 37 rdk 19 1 14
1420171 NA randomDot NA NA 439.024999999674 39 rdk 20 1 14
1420171 NA randomDot NA NA 829.230000003008 37 rdk 83 1 14
1420171 NA randomDot NA NA 496.720000002824 39 rdk 84 1 14
1420171 NA randomDot NA NA 522.870000000694 37 rdk 85 1 14
1420171 NA randomDot NA NA 553.925000000163 37 rdk 86 1 14
