resp,category,fribbleSelected,task,subjID,trial,labelPresented,frequency,rt,list,acc,type_of_resp,expeType
10125,1,dep,2AFC - 4 pictures,3518198,30,dep,low,2195.000000006985,2,1,match,pilot2
10125,1,dep,2AFC - 4 pictures,3517616,48,wug,low,1426.2800000142306,2,0,mismatch-type2,pilot2
10225,1,dep,2AFC - 4 pictures,3528247,27,dep,low,3036.07999999076,3,1,match,pilot2
10225,1,dep,2AFC - 4 pictures,3528246,19,dep,low,3340.62500001164,3,1,match,pilot2
10225,1,dep,2AFC - 4 pictures,3502663,23,dep,low,2045.80500000021,3,1,match,pilot2
10325,1,dep,2AFC - 4 pictures,3528247,46,tob,low,1134.78000002215,3,0,mismatch-type1,pilot2
10325,1,dep,2AFC - 4 pictures,3518198,55,dep,low,2857.000000018161,2,1,match,pilot2
10425,1,dep,2AFC - 4 pictures,3528247,40,tob,low,1276.3799999957,3,0,mismatch-type1,pilot2
10475,1,dep,2AFC - 4 pictures,3528247,21,dep,high,2258.28000000911,3,1,match,pilot2
10475,1,dep,2AFC - 4 pictures,3528246,21,dep,high,3021.9250000082,3,1,match,pilot2
10475,1,dep,2AFC - 4 pictures,3528273,47,dep,high,1826.74500020221,1,1,match,pilot2
10475,1,dep,2AFC - 4 pictures,3517626,30,dep,high,3021.00000000792,1,1,match,pilot2
10475,1,dep,2AFC - 4 pictures,3502663,50,dep,high,2095.91999999975,3,1,match,pilot2
10475,1,dep,2AFC - 4 pictures,3502650,21,dep,high,2395.52000000003,1,1,match,pilot2
10525,1,dep,2AFC - 4 pictures,3528273,25,tob,low,2193.5049998574,1,0,mismatch-type1,pilot2
10525,1,dep,2AFC - 4 pictures,3528252,23,tob,low,1038.0850000074133,2,0,mismatch-type1,pilot2
10525,1,dep,2AFC - 4 pictures,3502650,55,tob,low,1440.31500000006,1,0,mismatch-type1,pilot2
10525,1,dep,2AFC - 4 pictures,3518198,28,tob,low,3125.99999998929,2,0,mismatch-type1,pilot2
10525,1,dep,2AFC - 4 pictures,3517616,42,tob,low,1620.7649999996647,2,0,mismatch-type1,pilot2
10525,1,dep,2AFC - 4 pictures,3517626,13,tob,low,1372.99999999232,1,0,mismatch-type1,pilot2
10625,1,dep,2AFC - 4 pictures,3528252,53,tob,low,1255.8749999734573,2,0,mismatch-type1,pilot2
10625,1,dep,2AFC - 4 pictures,3518198,50,tob,low,2853.000000002794,2,0,mismatch-type1,pilot2
10625,1,dep,2AFC - 4 pictures,3517616,16,tob,low,1419.6700000029523,2,0,mismatch-type1,pilot2
10675,1,dep,2AFC - 4 pictures,3528252,31,dep,high,1894.7899999911897,2,1,match,pilot2
10675,1,dep,2AFC - 4 pictures,3528247,11,dep,high,1720.44999999343,3,1,match,pilot2
10675,1,dep,2AFC - 4 pictures,3528246,45,dep,high,2346.72499999579,3,1,match,pilot2
10675,1,dep,2AFC - 4 pictures,3502663,13,dep,high,1368.79999999974,3,1,match,pilot2
10675,1,dep,2AFC - 4 pictures,3518198,37,dep,high,1513.0000000353903,2,1,match,pilot2
10725,1,dep,2AFC - 4 pictures,3517616,32,tob,low,1402.0500000042375,2,0,mismatch-type1,pilot2
10725,1,dep,2AFC - 4 pictures,3528252,26,tob,low,1283.5850000265054,2,0,mismatch-type1,pilot2
10725,1,dep,2AFC - 4 pictures,3518198,15,tob,low,2069.000000017695,2,0,mismatch-type1,pilot2
10825,1,dep,2AFC - 4 pictures,3518198,56,dep,low,1614.9999999906868,2,1,match,pilot2
10825,1,dep,2AFC - 4 pictures,3518198,21,dep,low,1734.9999999860302,2,1,match,pilot2
10925,1,dep,2AFC - 4 pictures,3502663,28,dep,low,2312.32000000001,3,1,match,pilot2
10925,1,dep,2AFC - 4 pictures,3518198,9,dep,low,2100.9999999660067,2,1,match,pilot2
10925,1,dep,2AFC - 4 pictures,3517616,56,dep,low,1146.115000010468,2,1,match,pilot2
10975,1,dep,2AFC - 4 pictures,3502663,39,dep,high,2006.02500000014,3,1,match,pilot2
10975,1,dep,2AFC - 4 pictures,3528247,10,dep,high,1777.40500000073,3,1,match,pilot2
10975,1,dep,2AFC - 4 pictures,3502663,32,wug,high,1603.45999999982,3,0,mismatch-type1,pilot2
10975,1,dep,2AFC - 4 pictures,3528246,2,dep,high,2782.79499999189,3,1,match,pilot2
11025,1,dep,2AFC - 4 pictures,3517616,51,tob,low,1122.090000018943,2,0,mismatch-type1,pilot2
11025,1,dep,2AFC - 4 pictures,3528252,5,tob,low,2055.2150000003166,2,0,mismatch-type1,pilot2
11025,1,dep,2AFC - 4 pictures,3518198,49,tob,low,2145.0000000186265,2,0,mismatch-type1,pilot2
11025,1,dep,2AFC - 4 pictures,3517616,6,tob,low,1514.7649999998976,2,0,mismatch-type1,pilot2
11025,1,dep,2AFC - 4 pictures,3528252,42,tob,low,1668.6650000046939,2,0,mismatch-type1,pilot2
11025,1,dep,2AFC - 4 pictures,3518198,11,tob,low,1962.9999999888241,2,0,mismatch-type1,pilot2
11025,1,dep,2AFC - 4 pictures,3517616,47,wug,low,2069.4000000075903,2,0,mismatch-type2,pilot2
11075,1,dep,2AFC - 4 pictures,3502663,52,dep,high,2687.28999999986,3,1,match,pilot2
11075,1,dep,2AFC - 4 pictures,3528247,43,dep,high,2093.11000001617,3,1,match,pilot2
11075,1,dep,2AFC - 4 pictures,3528246,4,dep,high,1643.54999999341,3,1,match,pilot2
11175,1,dep,2AFC - 4 pictures,3528273,28,dep,high,1584.20000015758,1,1,match,pilot2
11175,1,dep,2AFC - 4 pictures,3517626,35,dep,high,1453.9999999979,1,1,match,pilot2
11175,1,dep,2AFC - 4 pictures,3502650,11,dep,high,1599.84999999983,1,1,match,pilot2
11225,1,dep,2AFC - 4 pictures,3517616,45,tob,low,1234.6499999985099,2,0,mismatch-type1,pilot2
11225,1,dep,2AFC - 4 pictures,3528247,9,dep,low,1614.46499999147,3,1,match,pilot2
11225,1,dep,2AFC - 4 pictures,3528252,22,tob,low,2922.580000013113,2,0,mismatch-type1,pilot2
11225,1,dep,2AFC - 4 pictures,3518198,23,tob,low,1296.0000000311993,2,0,mismatch-type1,pilot2
11225,1,dep,2AFC - 4 pictures,3528246,26,dep,low,2326.1050000001,3,1,match,pilot2
11225,1,dep,2AFC - 4 pictures,3502663,40,dep,low,1406.94499999975,3,1,match,pilot2
11275,1,dep,2AFC - 4 pictures,3518198,17,dep,high,1947.0000000437722,2,1,match,pilot2
11275,1,dep,2AFC - 4 pictures,3528252,41,dep,high,2071.1649999720976,2,1,match,pilot2
11325,1,dep,2AFC - 4 pictures,3528247,54,tob,low,1997.08999998984,3,0,mismatch-type1,pilot2
11425,1,dep,2AFC - 4 pictures,3518198,44,tob,low,1408.9999999850988,2,0,mismatch-type1,pilot2
11425,1,dep,2AFC - 4 pictures,3517616,27,tob,low,1718.8650000025518,2,0,mismatch-type1,pilot2
11425,1,dep,2AFC - 4 pictures,3528252,20,tob,low,2055.709999985993,2,0,mismatch-type1,pilot2
11425,1,dep,2AFC - 4 pictures,3517626,47,tob,low,1621.00000001374,1,0,mismatch-type1,pilot2
11525,1,dep,2AFC - 4 pictures,3502663,41,dep,low,1415.94499999975,3,1,match,pilot2
11525,1,dep,2AFC - 4 pictures,3528246,34,dep,low,1606.92500000005,3,1,match,pilot2
11575,1,dep,2AFC - 4 pictures,3528252,39,dep,high,1311.040000000503,2,1,match,pilot2
11625,1,dep,2AFC - 4 pictures,3528247,23,tob,low,2295.12500000419,3,0,mismatch-type1,pilot2
11625,1,dep,2AFC - 4 pictures,3517626,38,tob,low,1263.00000000629,1,0,mismatch-type1,pilot2
11625,1,dep,2AFC - 4 pictures,3528247,56,tob,low,2667.46999998577,3,0,mismatch-type1,pilot2
11625,1,dep,2AFC - 4 pictures,3518198,7,tob,low,1768.0000000400469,2,0,mismatch-type1,pilot2
11625,1,dep,2AFC - 4 pictures,3528247,35,tob,low,2066.91999998293,3,0,mismatch-type1,pilot2
11625,1,dep,2AFC - 4 pictures,3528273,26,tob,low,2789.94999988936,1,0,mismatch-type1,pilot2
11625,1,dep,2AFC - 4 pictures,3517616,40,tob,low,1247.1499999810476,2,0,mismatch-type1,pilot2
11625,1,dep,2AFC - 4 pictures,3528247,41,tob,low,1656.27499998664,3,0,mismatch-type1,pilot2
11725,1,dep,2AFC - 4 pictures,3517616,46,wug,low,1306.2250000075437,2,0,mismatch-type2,pilot2
11825,1,dep,2AFC - 4 pictures,3517626,55,tob,low,1075.00000001164,1,0,mismatch-type1,pilot2
11825,1,dep,2AFC - 4 pictures,3502650,52,tob,low,1205.41000000003,1,0,mismatch-type1,pilot2
11875,1,dep,2AFC - 4 pictures,3517626,2,wug,high,2125,1,0,mismatch-type1,pilot2
11925,1,dep,2AFC - 4 pictures,3528246,11,dep,low,2658.70500000892,3,1,match,pilot2
11975,1,dep,2AFC - 4 pictures,3528273,5,dep,high,3358.20500017144,1,1,match,pilot2
11975,1,dep,2AFC - 4 pictures,3502650,18,dep,high,1930.53499999996,1,1,match,pilot2
11975,1,dep,2AFC - 4 pictures,3517626,17,dep,high,2489.0000000014,1,1,match,pilot2
11975,1,dep,2AFC - 4 pictures,3528252,25,dep,high,1514.415000041481,2,1,match,pilot2
12075,1,dep,2AFC - 4 pictures,3517626,21,dep,high,2646.99999999721,1,1,match,pilot2
12075,1,dep,2AFC - 4 pictures,3528273,11,dep,high,1919.88499998115,1,1,match,pilot2
12075,1,dep,2AFC - 4 pictures,3502650,46,dep,high,1960.5100000001,1,1,match,pilot2
12075,1,dep,2AFC - 4 pictures,3528252,34,dep,high,2248.0799999902956,2,1,match,pilot2
12125,1,dep,2AFC - 4 pictures,3502663,24,dep,low,1014.71499999979,3,1,match,pilot2
12125,1,dep,2AFC - 4 pictures,3528246,44,dep,low,1869.87999999837,3,1,match,pilot2
12175,1,dep,2AFC - 4 pictures,3518198,18,wug,high,1635.0000000093132,2,0,mismatch-type1,pilot2
12225,1,dep,2AFC - 4 pictures,3502650,37,tob,low,1765.92000000004,1,0,mismatch-type1,pilot2
12225,1,dep,2AFC - 4 pictures,3528273,17,tob,low,1356.11500008963,1,0,mismatch-type1,pilot2
12225,1,dep,2AFC - 4 pictures,3517626,45,tob,low,1328.00000000861,1,0,mismatch-type1,pilot2
12275,1,dep,2AFC - 4 pictures,3517626,34,wug,high,1502.99999999697,1,0,mismatch-type1,pilot2
12325,1,dep,2AFC - 4 pictures,3517626,54,tob,low,2024.00000000489,1,0,mismatch-type1,pilot2
12325,1,dep,2AFC - 4 pictures,3502650,30,tob,low,1884.93500000004,1,0,mismatch-type1,pilot2
12325,1,dep,2AFC - 4 pictures,3528273,3,tob,low,2370.26500003412,1,0,mismatch-type1,pilot2
12325,1,dep,2AFC - 4 pictures,3502663,12,dep,low,1122.37000000005,3,1,match,pilot2
12325,1,dep,2AFC - 4 pictures,3528246,30,dep,low,2380.4999999993,3,1,match,pilot2
12425,1,dep,2AFC - 4 pictures,3502650,39,tob,low,1779.08499999988,1,0,mismatch-type1,pilot2
12425,1,dep,2AFC - 4 pictures,3502650,42,tob,low,2166.45500000005,1,0,mismatch-type1,pilot2
12425,1,dep,2AFC - 4 pictures,3517626,16,tob,low,1321.00000002538,1,0,mismatch-type1,pilot2
12475,1,dep,2AFC - 4 pictures,3518198,5,wug,high,1885.0000000093132,2,0,mismatch-type1,pilot2
12525,1,dep,2AFC - 4 pictures,3517616,9,dep,low,1606.9600000046194,2,1,match,pilot2
12575,1,dep,2AFC - 4 pictures,3517626,27,wug,high,1752.99999999697,1,0,mismatch-type1,pilot2
12675,1,dep,2AFC - 4 pictures,3517626,36,dep,high,2502.99999999697,1,1,match,pilot2
12675,1,dep,2AFC - 4 pictures,3528273,34,dep,high,1583.0900000874,1,1,match,pilot2
12675,1,dep,2AFC - 4 pictures,3502650,56,dep,high,1874.54500000013,1,1,match,pilot2
12775,1,dep,2AFC - 4 pictures,3502650,54,dep,high,2591.905,1,1,match,pilot2
12775,1,dep,2AFC - 4 pictures,3517626,42,dep,high,1505.99999999395,1,1,match,pilot2
12775,1,dep,2AFC - 4 pictures,3528273,7,dep,high,2247.90999991819,1,1,match,pilot2
12775,1,dep,2AFC - 4 pictures,3528273,6,dep,high,1725.79500009306,1,1,match,pilot2
12775,1,dep,2AFC - 4 pictures,3502650,8,dep,high,1930.22499999983,1,1,match,pilot2
12775,1,dep,2AFC - 4 pictures,3517626,39,dep,high,2168.99999999441,1,1,match,pilot2
12875,1,dep,2AFC - 4 pictures,3528246,10,dep,high,2281.74500000023,3,1,match,pilot2
12875,1,dep,2AFC - 4 pictures,3518198,36,dep,high,3106.000000028871,2,1,match,pilot2
12875,1,dep,2AFC - 4 pictures,3528247,18,dep,high,1916.13500000676,3,1,match,pilot2
12875,1,dep,2AFC - 4 pictures,3528252,49,dep,high,2200.874999980442,2,1,match,pilot2
12975,1,dep,2AFC - 4 pictures,3502663,11,dep,high,2453.28500000005,3,1,match,pilot2
12975,1,dep,2AFC - 4 pictures,3528247,30,dep,high,2179.76999998791,3,1,match,pilot2
12975,1,dep,2AFC - 4 pictures,3528246,37,dep,high,1851.67499999807,3,1,match,pilot2
13075,1,dep,2AFC - 4 pictures,3518198,46,dep,high,2895.0000000186265,2,1,match,pilot2
13075,1,dep,2AFC - 4 pictures,3502650,53,dep,high,1792.93000000008,1,1,match,pilot2
13075,1,dep,2AFC - 4 pictures,3517616,3,dep,high,1180.965000006836,2,1,match,pilot2
13075,1,dep,2AFC - 4 pictures,3528273,36,dep,high,1873.63499985076,1,1,match,pilot2
13075,1,dep,2AFC - 4 pictures,3528252,14,dep,high,1708.2900000386871,2,1,match,pilot2
13375,1,dep,2AFC - 4 pictures,3502663,44,dep,high,2019.60000000009,3,1,match,pilot2
13375,1,dep,2AFC - 4 pictures,3528246,7,dep,high,1258.56499999645,3,1,match,pilot2
13375,1,dep,2AFC - 4 pictures,3528247,5,dep,high,1810.41999999434,3,1,match,pilot2
13475,1,dep,2AFC - 4 pictures,3528252,37,dep,high,1237.1649999986403,2,1,match,pilot2
13475,1,dep,2AFC - 4 pictures,3528247,14,dep,high,2030.88000000571,3,1,match,pilot2
13475,1,dep,2AFC - 4 pictures,3517616,13,dep,high,1698.5900000145193,2,1,match,pilot2
13475,1,dep,2AFC - 4 pictures,3518198,38,dep,high,1179.999999993015,2,1,match,pilot2
13475,1,dep,2AFC - 4 pictures,3502663,53,dep,high,1072.52000000016,3,1,match,pilot2
13475,1,dep,2AFC - 4 pictures,3528246,24,dep,high,2199.62499999383,3,1,match,pilot2
20125,2,wug,2AFC - 4 pictures,3528247,37,tob,low,1859.145000024,3,0,mismatch-type2,pilot2
20125,2,wug,2AFC - 4 pictures,3528247,6,wug,low,2747.41999999969,3,1,match,pilot2
20125,2,wug,2AFC - 4 pictures,3528246,46,wug,low,2996.07999999716,3,1,match,pilot2
20125,2,wug,2AFC - 4 pictures,3502663,10,wug,low,1807.66500000027,3,1,match,pilot2
20225,2,wug,2AFC - 4 pictures,3518198,19,dep,low,2347.9999999981374,2,0,mismatch-type1,pilot2
20225,2,wug,2AFC - 4 pictures,3502663,31,tob,low,3313.34500000003,3,0,mismatch-type2,pilot2
20225,2,wug,2AFC - 4 pictures,3528252,21,dep,low,1619.2900000023656,2,0,mismatch-type1,pilot2
20225,2,wug,2AFC - 4 pictures,3528246,39,tob,low,2335.78500000294,3,0,mismatch-type2,pilot2
20275,2,wug,2AFC - 4 pictures,3528246,22,wug,high,3276.079999996,3,1,match,pilot2
20275,2,wug,2AFC - 4 pictures,3528247,55,wug,high,1637.61499998509,3,1,match,pilot2
20325,2,wug,2AFC - 4 pictures,3517626,32,dep,low,1878.99999998626,1,0,mismatch-type1,pilot2
20325,2,wug,2AFC - 4 pictures,3502650,12,dep,low,1870.75000000004,1,0,mismatch-type1,pilot2
20325,2,wug,2AFC - 4 pictures,3528273,15,dep,low,2659.82000017539,1,0,mismatch-type1,pilot2
20325,2,wug,2AFC - 4 pictures,3528247,42,dep,low,2882.15499999933,3,0,mismatch-type1,pilot2
20375,2,wug,2AFC - 4 pictures,3502650,7,wug,high,1237.27500000018,1,1,match,pilot2
20425,2,wug,2AFC - 4 pictures,3502663,6,wug,low,3079.99000000018,3,1,match,pilot2
20425,2,wug,2AFC - 4 pictures,3518198,20,wug,low,2812.000000034459,2,1,match,pilot2
20425,2,wug,2AFC - 4 pictures,3528247,29,wug,low,2278.13500000047,3,1,match,pilot2
20425,2,wug,2AFC - 4 pictures,3528246,42,wug,low,2935.51499999012,3,1,match,pilot2
20425,2,wug,2AFC - 4 pictures,3528252,11,dep,low,1078.0800000065938,2,0,mismatch-type1,pilot2
20475,2,wug,2AFC - 4 pictures,3517616,14,wug,high,1572.9950000240933,2,1,match,pilot2
20475,2,wug,2AFC - 4 pictures,3528252,4,wug,high,1138.7500000419095,2,1,match,pilot2
20475,2,wug,2AFC - 4 pictures,3518198,41,wug,high,966.9999999459833,2,1,match,pilot2
20525,2,wug,2AFC - 4 pictures,3528273,50,tob,low,3416.49500001222,1,0,mismatch-type2,pilot2
20525,2,wug,2AFC - 4 pictures,3518198,22,wug,low,1532.0000000065193,2,1,match,pilot2
20575,2,wug,2AFC - 4 pictures,3528246,49,wug,high,2671.94500000915,3,1,match,pilot2
20575,2,wug,2AFC - 4 pictures,3528247,50,wug,high,2159.58000000683,3,1,match,pilot2
20575,2,wug,2AFC - 4 pictures,3502663,47,wug,high,1714.87000000026,3,1,match,pilot2
20625,2,wug,2AFC - 4 pictures,3502663,5,wug,low,2463.58000000009,3,1,match,pilot2
20625,2,wug,2AFC - 4 pictures,3502650,3,dep,low,3112.19499999993,1,0,mismatch-type1,pilot2
20625,2,wug,2AFC - 4 pictures,3528273,24,dep,low,1780.92000004835,1,0,mismatch-type1,pilot2
20625,2,wug,2AFC - 4 pictures,3528246,12,wug,low,2537.98500000266,3,1,match,pilot2
20625,2,wug,2AFC - 4 pictures,3528247,47,wug,low,1742.53000001772,3,1,match,pilot2
20625,2,wug,2AFC - 4 pictures,3517626,37,dep,low,1432.0000000007,1,0,mismatch-type1,pilot2
20675,2,wug,2AFC - 4 pictures,3528246,17,wug,high,2751.74500000139,3,1,match,pilot2
20675,2,wug,2AFC - 4 pictures,3502650,35,wug,high,1696.12000000005,1,1,match,pilot2
20675,2,wug,2AFC - 4 pictures,3528247,34,wug,high,1553.74000000302,3,1,match,pilot2
20675,2,wug,2AFC - 4 pictures,3502663,18,wug,high,2530.8100000002,3,1,match,pilot2
20725,2,wug,2AFC - 4 pictures,3517626,44,tob,low,1483.99999999674,1,0,mismatch-type2,pilot2
20725,2,wug,2AFC - 4 pictures,3528246,35,tob,low,2341.35499999684,3,0,mismatch-type2,pilot2
20725,2,wug,2AFC - 4 pictures,3518198,31,wug,low,2579.0000000270084,2,1,match,pilot2
20775,2,wug,2AFC - 4 pictures,3502650,33,tob,high,928.414999999863,1,0,mismatch-type1,pilot2
20825,2,wug,2AFC - 4 pictures,3528246,53,wug,low,2497.30499999714,3,1,match,pilot2
20825,2,wug,2AFC - 4 pictures,3518198,33,wug,low,1847.0000000088476,2,1,match,pilot2
20825,2,wug,2AFC - 4 pictures,3502663,30,wug,low,2086.40499999956,3,1,match,pilot2
20825,2,wug,2AFC - 4 pictures,3518198,34,wug,low,2632.000000041444,2,1,match,pilot2
20825,2,wug,2AFC - 4 pictures,3528247,20,wug,low,2377.56500000251,3,1,match,pilot2
20875,2,wug,2AFC - 4 pictures,3518198,2,wug,high,2476.0000000242144,2,1,match,pilot2
20875,2,wug,2AFC - 4 pictures,3528252,38,wug,high,1160.8349999878556,2,1,match,pilot2
20875,2,wug,2AFC - 4 pictures,3517616,12,dep,high,1548.190000001341,2,0,mismatch-type2,pilot2
20875,2,wug,2AFC - 4 pictures,3517616,18,wug,high,1400.7049999781884,2,1,match,pilot2
20875,2,wug,2AFC - 4 pictures,3518198,24,tob,high,3229.9999999813735,2,0,mismatch-type1,pilot2
20925,2,wug,2AFC - 4 pictures,3502663,15,wug,low,1215.28499999976,3,1,match,pilot2
20925,2,wug,2AFC - 4 pictures,3528246,8,wug,low,2229.13500000141,3,1,match,pilot2
20925,2,wug,2AFC - 4 pictures,3502650,14,dep,low,2263.84000000008,1,0,mismatch-type1,pilot2
20925,2,wug,2AFC - 4 pictures,3528247,36,wug,low,1886.09499999438,3,1,match,pilot2
20925,2,wug,2AFC - 4 pictures,3517626,24,dep,low,3322.00000001467,1,0,mismatch-type1,pilot2
21025,2,wug,2AFC - 4 pictures,3518198,39,wug,low,1525.000000023283,2,1,match,pilot2
21025,2,wug,2AFC - 4 pictures,3517626,12,wug,low,2040.99999999744,1,1,match,pilot2
21025,2,wug,2AFC - 4 pictures,3517626,41,wug,low,1589.00000000722,1,1,match,pilot2
21025,2,wug,2AFC - 4 pictures,3528252,9,dep,low,1247.5800000247546,2,0,mismatch-type1,pilot2
21075,2,wug,2AFC - 4 pictures,3528246,51,wug,high,1690.67500000529,3,1,match,pilot2
21075,2,wug,2AFC - 4 pictures,3502663,43,wug,high,1945.745,3,1,match,pilot2
21075,2,wug,2AFC - 4 pictures,3528247,33,wug,high,1797.9350000096,3,1,match,pilot2
21125,2,wug,2AFC - 4 pictures,3502650,2,dep,low,3211.76500000001,1,0,mismatch-type1,pilot2
21125,2,wug,2AFC - 4 pictures,3528273,18,dep,low,3159.08999997191,1,0,mismatch-type1,pilot2
21175,2,wug,2AFC - 4 pictures,3517626,19,wug,high,1676.99999999604,1,1,match,pilot2
21175,2,wug,2AFC - 4 pictures,3502650,25,wug,high,787.465000000113,1,1,match,pilot2
21275,2,wug,2AFC - 4 pictures,3528273,35,bim,control_high,2539.24500010908,1,0,errorControl,pilot2
21325,2,wug,2AFC - 4 pictures,3528273,22,dep,low,2281.79499995895,1,0,mismatch-type1,pilot2
21325,2,wug,2AFC - 4 pictures,3502650,27,dep,low,1619.90999999989,1,0,mismatch-type1,pilot2
21375,2,wug,2AFC - 4 pictures,3528252,55,wug,high,1372.289999970235,2,1,match,pilot2
21375,2,wug,2AFC - 4 pictures,3517616,52,wug,high,1502.4850000045262,2,1,match,pilot2
21425,2,wug,2AFC - 4 pictures,3528252,1,dep,low,1483.875000034459,2,0,mismatch-type1,pilot2
21425,2,wug,2AFC - 4 pictures,3528252,51,dep,low,1325.95999998739,2,0,mismatch-type1,pilot2
21525,2,wug,2AFC - 4 pictures,3528273,41,dep,low,2788.44000003301,1,0,mismatch-type1,pilot2
21525,2,wug,2AFC - 4 pictures,3528247,44,wug,low,2794.10500000813,3,1,match,pilot2
21525,2,wug,2AFC - 4 pictures,3517626,25,dep,low,3057.0000000007,1,0,mismatch-type1,pilot2
21525,2,wug,2AFC - 4 pictures,3502663,20,wug,low,1967.7499999998,3,1,match,pilot2
21525,2,wug,2AFC - 4 pictures,3528246,20,wug,low,2223.11999999511,3,1,match,pilot2
21625,2,wug,2AFC - 4 pictures,3502663,38,wug,low,2784.80499999976,3,1,match,pilot2
21625,2,wug,2AFC - 4 pictures,3528252,44,dep,low,1696.6249999823049,2,0,mismatch-type1,pilot2
21625,2,wug,2AFC - 4 pictures,3528246,28,wug,low,1910.10000000824,3,1,match,pilot2
21625,2,wug,2AFC - 4 pictures,3528246,36,tob,low,2271.30000000761,3,0,mismatch-type2,pilot2
21675,2,wug,2AFC - 4 pictures,3517616,26,wug,high,2198.3950000139885,2,1,match,pilot2
21675,2,wug,2AFC - 4 pictures,3528252,30,wug,high,1507.2099999524653,2,1,match,pilot2
21675,2,wug,2AFC - 4 pictures,3518198,26,wug,high,2300.9999999776483,2,1,match,pilot2
21725,2,wug,2AFC - 4 pictures,3502663,25,wug,low,1104.58999999991,3,1,match,pilot2
21725,2,wug,2AFC - 4 pictures,3528252,52,dep,low,1393.625000026077,2,0,mismatch-type1,pilot2
21725,2,wug,2AFC - 4 pictures,3528247,19,wug,low,2402.65000000363,3,1,match,pilot2
21725,2,wug,2AFC - 4 pictures,3528246,56,wug,low,2878.37500000023,3,1,match,pilot2
21725,2,wug,2AFC - 4 pictures,3518198,3,wug,low,1997.9999999632128,2,1,match,pilot2
21875,2,wug,2AFC - 4 pictures,3502650,17,wug,high,1115.59499999997,1,1,match,pilot2
21975,2,wug,2AFC - 4 pictures,3502663,17,dep,high,1857.35999999997,3,0,mismatch-type2,pilot2
22075,2,wug,2AFC - 4 pictures,3528252,3,wug,high,1324.8749999911524,2,1,match,pilot2
22075,2,wug,2AFC - 4 pictures,3517616,54,wug,high,2055.045000015525,2,1,match,pilot2
22075,2,wug,2AFC - 4 pictures,3517616,24,dep,high,1183.9399999880698,2,0,mismatch-type2,pilot2
22125,2,wug,2AFC - 4 pictures,3528252,45,dep,low,1603.4199999994598,2,0,mismatch-type1,pilot2
22125,2,wug,2AFC - 4 pictures,3528273,55,dep,low,1625.25500007905,1,0,mismatch-type1,pilot2
22175,2,wug,2AFC - 4 pictures,3517616,25,dep,high,2061.684999993304,2,0,mismatch-type2,pilot2
22175,2,wug,2AFC - 4 pictures,3517626,48,wug,high,1122.00000000303,1,1,match,pilot2
22175,2,wug,2AFC - 4 pictures,3528273,38,wug,high,2941.71000015922,1,1,match,pilot2
22175,2,wug,2AFC - 4 pictures,3502650,16,wug,high,1208.77999999994,1,1,match,pilot2
22275,2,wug,2AFC - 4 pictures,3528247,15,wug,high,1032.00499998638,3,1,match,pilot2
22275,2,wug,2AFC - 4 pictures,3528246,32,wug,high,2353.13000000315,3,1,match,pilot2
22325,2,wug,2AFC - 4 pictures,3528273,31,wug,low,3078.38999992236,1,1,match,pilot2
22325,2,wug,2AFC - 4 pictures,3518198,54,wug,low,2726.0000000242144,2,1,match,pilot2
22325,2,wug,2AFC - 4 pictures,3517626,5,wug,low,3194.0000000177,1,1,match,pilot2
22425,2,wug,2AFC - 4 pictures,3517626,15,wug,low,3026.00000001257,1,1,match,pilot2
22475,2,wug,2AFC - 4 pictures,3528252,18,wug,high,1581.1649999814108,2,1,match,pilot2
22475,2,wug,2AFC - 4 pictures,3528247,28,wug,high,1124.32999999146,3,1,match,pilot2
22475,2,wug,2AFC - 4 pictures,3518198,42,wug,high,1744.9999999953434,2,1,match,pilot2
22475,2,wug,2AFC - 4 pictures,3518198,6,wug,high,2781.0000000172295,2,1,match,pilot2
22475,2,wug,2AFC - 4 pictures,3517616,7,wug,high,1376.9949999987148,2,1,match,pilot2
22475,2,wug,2AFC - 4 pictures,3528252,27,wug,high,1012.8750000149012,2,1,match,pilot2
22875,2,wug,2AFC - 4 pictures,3517616,23,dep,high,1197.7699999988545,2,0,mismatch-type2,pilot2
22875,2,wug,2AFC - 4 pictures,3518198,12,dep,high,2580.000000016298,2,0,mismatch-type2,pilot2
22975,2,wug,2AFC - 4 pictures,3502663,42,wug,high,2841.50999999975,3,1,match,pilot2
22975,2,wug,2AFC - 4 pictures,3528247,53,wug,high,996.245000016643,3,1,match,pilot2
22975,2,wug,2AFC - 4 pictures,3528246,41,wug,high,2729.65999999724,3,1,match,pilot2
23075,2,wug,2AFC - 4 pictures,3517616,29,dep,high,1524.9999999941792,2,0,mismatch-type2,pilot2
23175,2,wug,2AFC - 4 pictures,3528252,40,wug,high,1235.6700000236742,2,1,match,pilot2
23175,2,wug,2AFC - 4 pictures,3517626,56,wug,high,2361.00000000442,1,1,match,pilot2
23175,2,wug,2AFC - 4 pictures,3518198,40,wug,high,2370.999999984633,2,1,match,pilot2
23175,2,wug,2AFC - 4 pictures,3517616,2,wug,high,1719.7150000138208,2,1,match,pilot2
23175,2,wug,2AFC - 4 pictures,3502650,15,wug,high,2685.0649999999,1,1,match,pilot2
23275,2,wug,2AFC - 4 pictures,3502650,22,wug,high,1360.83499999995,1,1,match,pilot2
23275,2,wug,2AFC - 4 pictures,3517626,10,wug,high,1755.00000000466,1,1,match,pilot2
23475,2,wug,2AFC - 4 pictures,3528247,8,wug,high,1568.34499997785,3,1,match,pilot2
23475,2,wug,2AFC - 4 pictures,3502663,36,wug,high,2007.19000000026,3,1,match,pilot2
23475,2,wug,2AFC - 4 pictures,3528246,13,wug,high,2058.16499999491,3,1,match,pilot2
23575,2,wug,2AFC - 4 pictures,3502650,41,wug,high,1155.1750000001,1,1,match,pilot2
23575,2,wug,2AFC - 4 pictures,3528273,44,wug,high,1338.05500017479,1,1,match,pilot2
23575,2,wug,2AFC - 4 pictures,3517626,11,wug,high,1897.9999999865,1,1,match,pilot2
23575,2,wug,2AFC - 4 pictures,3502663,1,tob,high,2293.5650000004,3,0,mismatch-type1,pilot2
30125,3,tob,2AFC - 4 pictures,3502663,54,tob,low,2428.31999999998,3,1,match,pilot2
30125,3,tob,2AFC - 4 pictures,3528246,16,tob,low,2643.20999999472,3,1,match,pilot2
30175,3,tob,2AFC - 4 pictures,3518198,4,tob,high,1665.999999968335,2,1,match,pilot2
30175,3,tob,2AFC - 4 pictures,3528252,56,tob,high,2349.289999983739,2,1,match,pilot2
30175,3,tob,2AFC - 4 pictures,3517616,28,tob,high,1458.920000004582,2,1,match,pilot2
30225,3,tob,2AFC - 4 pictures,3517626,43,wug,low,1475.00000000582,1,0,mismatch-type1,pilot2
30225,3,tob,2AFC - 4 pictures,3517616,31,dep,low,2065.759999997681,2,0,mismatch-type2,pilot2
30225,3,tob,2AFC - 4 pictures,3502650,29,wug,low,1805.23000000017,1,0,mismatch-type1,pilot2
30225,3,tob,2AFC - 4 pictures,3528273,37,wug,low,2579.72999988124,1,0,mismatch-type1,pilot2
30225,3,tob,2AFC - 4 pictures,3517616,41,dep,low,2181.400000001304,2,0,mismatch-type2,pilot2
30275,3,tob,2AFC - 4 pictures,3502663,2,tob,high,1743.43999999974,3,1,match,pilot2
30275,3,tob,2AFC - 4 pictures,3528246,9,tob,high,1770.17000000342,3,1,match,pilot2
30275,3,tob,2AFC - 4 pictures,3528247,25,tob,high,2621.62499999977,3,1,match,pilot2
30325,3,tob,2AFC - 4 pictures,3528252,2,tob,low,2716.459999966901,2,1,match,pilot2
30425,3,tob,2AFC - 4 pictures,3502663,4,tob,low,2142.15000000013,3,1,match,pilot2
30425,3,tob,2AFC - 4 pictures,3502650,36,wug,low,1798.5450000001,1,0,mismatch-type1,pilot2
30425,3,tob,2AFC - 4 pictures,3502663,8,tob,low,1784.67000000001,3,1,match,pilot2
30425,3,tob,2AFC - 4 pictures,3528273,29,wug,low,3133.35500005633,1,0,mismatch-type1,pilot2
30475,3,tob,2AFC - 4 pictures,3517616,39,tob,high,1431.3799999945331,2,1,match,pilot2
30475,3,tob,2AFC - 4 pictures,3518198,35,tob,high,1324.9999999534339,2,1,match,pilot2
30475,3,tob,2AFC - 4 pictures,3528252,8,tob,high,1052.1699999808334,2,1,match,pilot2
30525,3,tob,2AFC - 4 pictures,3528273,4,wug,low,1245.45500008389,1,0,mismatch-type1,pilot2
30525,3,tob,2AFC - 4 pictures,3502650,51,wug,low,1208.25000000012,1,0,mismatch-type1,pilot2
30525,3,tob,2AFC - 4 pictures,3517626,51,wug,low,1568.99999998859,1,0,mismatch-type1,pilot2
30525,3,tob,2AFC - 4 pictures,3517616,36,dep,low,2142.554999998538,2,0,mismatch-type2,pilot2
30575,3,tob,2AFC - 4 pictures,3517626,40,bim,control_high,1565.00000000233,1,0,errorControl,pilot2
30725,3,tob,2AFC - 4 pictures,3528252,10,wug,low,1115.79500004882,2,0,mismatch-type1,pilot2
30725,3,tob,2AFC - 4 pictures,3502663,56,tob,low,2239.66500000007,3,1,match,pilot2
30725,3,tob,2AFC - 4 pictures,3528246,14,tob,low,2969.66499999689,3,1,match,pilot2
30725,3,tob,2AFC - 4 pictures,3517616,15,wug,low,843.8749999913853,2,0,mismatch-type1,pilot2
30775,3,tob,2AFC - 4 pictures,3528273,10,tob,high,2096.03499993682,1,1,match,pilot2
30775,3,tob,2AFC - 4 pictures,3502650,10,tob,high,2007.30500000009,1,1,match,pilot2
30775,3,tob,2AFC - 4 pictures,3517626,31,tob,high,1804.00000000373,1,1,match,pilot2
30925,3,tob,2AFC - 4 pictures,3528273,52,wug,low,2859.75999990478,1,0,mismatch-type1,pilot2
30925,3,tob,2AFC - 4 pictures,3517616,44,wug,low,1630.9349999937695,2,0,mismatch-type1,pilot2
30925,3,tob,2AFC - 4 pictures,3517626,20,wug,low,2083.00000001327,1,0,mismatch-type1,pilot2
30925,3,tob,2AFC - 4 pictures,3528252,29,wug,low,2112.9599999985658,2,0,mismatch-type1,pilot2
30925,3,tob,2AFC - 4 pictures,3528252,35,wug,low,1032.5399999856018,2,0,mismatch-type1,pilot2
31025,3,tob,2AFC - 4 pictures,3517616,50,dep,low,2139.5799999882,2,0,mismatch-type2,pilot2
31025,3,tob,2AFC - 4 pictures,3528247,17,dep,low,2391.51499999571,3,0,mismatch-type2,pilot2
31025,3,tob,2AFC - 4 pictures,3518198,51,dep,low,1979.0000000502914,2,0,mismatch-type2,pilot2
31025,3,tob,2AFC - 4 pictures,3528247,31,dep,low,3285.44499998679,3,0,mismatch-type2,pilot2
31125,3,tob,2AFC - 4 pictures,3517616,30,dep,low,1445.3149999899324,2,0,mismatch-type2,pilot2
31125,3,tob,2AFC - 4 pictures,3528273,45,dep,low,1995.34999998286,1,0,mismatch-type2,pilot2
31125,3,tob,2AFC - 4 pictures,3528247,3,wug,low,1173.71500001173,3,0,mismatch-type1,pilot2
31125,3,tob,2AFC - 4 pictures,3517616,17,dep,low,1250.8249999955297,2,0,mismatch-type2,pilot2
31175,3,tob,2AFC - 4 pictures,3528252,16,tob,high,2495.5799999879673,2,1,match,pilot2
31175,3,tob,2AFC - 4 pictures,3518198,16,tob,high,1210.0000000209548,2,1,match,pilot2
31175,3,tob,2AFC - 4 pictures,3502663,3,tob,high,2056.51000000034,3,1,match,pilot2
31175,3,tob,2AFC - 4 pictures,3528273,46,wug,high,2900.59500001371,1,0,mismatch-type2,pilot2
31175,3,tob,2AFC - 4 pictures,3517616,5,tob,high,1326.2899999972433,2,1,match,pilot2
31175,3,tob,2AFC - 4 pictures,3528246,50,tob,high,929.839999997057,3,1,match,pilot2
31175,3,tob,2AFC - 4 pictures,3528273,43,tob,high,2546.13500018604,1,1,match,pilot2
31175,3,tob,2AFC - 4 pictures,3528247,45,tob,high,1605.58499998297,3,1,match,pilot2
31175,3,tob,2AFC - 4 pictures,3517626,46,tob,high,1541.99999998673,1,1,match,pilot2
31225,3,tob,2AFC - 4 pictures,3528252,19,wug,low,1605.005000019446,2,0,mismatch-type1,pilot2
31325,3,tob,2AFC - 4 pictures,3517626,28,dep,low,1948.99999999325,1,0,mismatch-type2,pilot2
31325,3,tob,2AFC - 4 pictures,3528252,15,wug,low,1445.9199999691918,2,0,mismatch-type1,pilot2
31325,3,tob,2AFC - 4 pictures,3502663,29,tob,low,2486.84000000003,3,1,match,pilot2
31325,3,tob,2AFC - 4 pictures,3517616,53,wug,low,1306.7050000245217,2,0,mismatch-type1,pilot2
31375,3,tob,2AFC - 4 pictures,3528247,39,tob,high,1103.44999999506,3,1,match,pilot2
31375,3,tob,2AFC - 4 pictures,3502663,45,tob,high,1101.22499999989,3,1,match,pilot2
31375,3,tob,2AFC - 4 pictures,3502663,27,tob,high,1160.76499999962,3,1,match,pilot2
31375,3,tob,2AFC - 4 pictures,3528246,52,tob,high,1923.02499999641,3,1,match,pilot2
31375,3,tob,2AFC - 4 pictures,3517616,10,tob,high,2311.970000009751,2,1,match,pilot2
31375,3,tob,2AFC - 4 pictures,3528247,38,tob,high,1411.71000001486,3,1,match,pilot2
31375,3,tob,2AFC - 4 pictures,3528252,47,tob,high,2191.9549999875017,2,1,match,pilot2
31375,3,tob,2AFC - 4 pictures,3517616,22,bim,control_high,1173.385000001872,2,0,errorControl,pilot2
31375,3,tob,2AFC - 4 pictures,3528246,47,tob,high,1749.86999999965,3,1,match,pilot2
31425,3,tob,2AFC - 4 pictures,3502650,50,wug,low,1732.50500000015,1,0,mismatch-type1,pilot2
31425,3,tob,2AFC - 4 pictures,3528246,29,tob,low,2866.89000000479,3,1,match,pilot2
31425,3,tob,2AFC - 4 pictures,3528246,27,tob,low,2559.08500000078,3,1,match,pilot2
31425,3,tob,2AFC - 4 pictures,3502663,9,tob,low,1267.06000000013,3,1,match,pilot2
31625,3,tob,2AFC - 4 pictures,3528252,24,wug,low,1361.2500000162981,2,0,mismatch-type1,pilot2
31625,3,tob,2AFC - 4 pictures,3517616,35,wug,low,1765.480000001844,2,0,mismatch-type1,pilot2
31725,3,tob,2AFC - 4 pictures,3528252,6,wug,low,1297.2100000479259,2,0,mismatch-type1,pilot2
31725,3,tob,2AFC - 4 pictures,3502650,43,wug,low,1354.35000000006,1,0,mismatch-type1,pilot2
31725,3,tob,2AFC - 4 pictures,3517616,43,wug,low,1722.6950000040233,2,0,mismatch-type1,pilot2
31725,3,tob,2AFC - 4 pictures,3528273,20,wug,low,2862.9250000231,1,0,mismatch-type1,pilot2
31875,3,tob,2AFC - 4 pictures,3528246,1,tob,high,2545.58999999426,3,1,match,pilot2
31875,3,tob,2AFC - 4 pictures,3528247,22,tob,high,1825.1900000032,3,1,match,pilot2
31925,3,tob,2AFC - 4 pictures,3528247,52,dep,low,2192.86999999895,3,0,mismatch-type2,pilot2
31925,3,tob,2AFC - 4 pictures,3502663,21,dep,low,2502.69000000025,3,0,mismatch-type2,pilot2
31975,3,tob,2AFC - 4 pictures,3517626,33,tob,high,2130.99999999395,1,1,match,pilot2
31975,3,tob,2AFC - 4 pictures,3517616,8,dep,high,2517.099999997299,2,0,mismatch-type1,pilot2
31975,3,tob,2AFC - 4 pictures,3528273,49,tob,high,3348.29499991611,1,1,match,pilot2
31975,3,tob,2AFC - 4 pictures,3502650,45,tob,high,2757.33500000002,1,1,match,pilot2
32025,3,tob,2AFC - 4 pictures,3528252,28,wug,low,1483.0450000008568,2,0,mismatch-type1,pilot2
32025,3,tob,2AFC - 4 pictures,3528273,13,tob,low,1554.13499986753,1,1,match,pilot2
32025,3,tob,2AFC - 4 pictures,3528247,49,dep,low,3283.65500000655,3,0,mismatch-type2,pilot2
32025,3,tob,2AFC - 4 pictures,3502650,19,tob,low,2088.94999999985,1,1,match,pilot2
32025,3,tob,2AFC - 4 pictures,3502650,48,tob,low,1038.00499999989,1,1,match,pilot2
32075,3,tob,2AFC - 4 pictures,3517616,21,tob,high,1168.390000006184,2,1,match,pilot2
32075,3,tob,2AFC - 4 pictures,3518198,43,tob,high,1360.99999997532,2,1,match,pilot2
32075,3,tob,2AFC - 4 pictures,3528252,7,tob,high,1583.8750000111759,2,1,match,pilot2
32075,3,tob,2AFC - 4 pictures,3502650,5,tob,high,1072.85000000001,1,1,match,pilot2
32075,3,tob,2AFC - 4 pictures,3517616,19,tob,high,1480.5400000186637,2,1,match,pilot2
32075,3,tob,2AFC - 4 pictures,3528252,13,tob,high,1350.6650000344962,2,1,match,pilot2
32075,3,tob,2AFC - 4 pictures,3517626,14,tob,high,1953.9999999979,1,1,match,pilot2
32075,3,tob,2AFC - 4 pictures,3528273,39,tob,high,2056.44999979995,1,1,match,pilot2
32075,3,tob,2AFC - 4 pictures,3518198,10,tob,high,1625.9999999892898,2,1,match,pilot2
32225,3,tob,2AFC - 4 pictures,3517626,49,wug,low,1987.00000002282,1,0,mismatch-type1,pilot2
32225,3,tob,2AFC - 4 pictures,3528273,53,wug,low,1141.80499990471,1,0,mismatch-type1,pilot2
32225,3,tob,2AFC - 4 pictures,3502650,38,wug,low,1162.20999999996,1,0,mismatch-type1,pilot2
32325,3,tob,2AFC - 4 pictures,3528273,1,wug,low,3265.74499998242,1,0,mismatch-type1,pilot2
32325,3,tob,2AFC - 4 pictures,3502650,44,wug,low,1353.57000000001,1,0,mismatch-type1,pilot2
32425,3,tob,2AFC - 4 pictures,3528247,16,dep,low,2799.52999998932,3,0,mismatch-type2,pilot2
32475,3,tob,2AFC - 4 pictures,3517626,50,tob,high,1317.00000001001,1,1,match,pilot2
32475,3,tob,2AFC - 4 pictures,3517616,49,wug,high,2243.430000002263,2,0,mismatch-type2,pilot2
32675,3,tob,2AFC - 4 pictures,3517626,1,tob,high,2904.99999999884,1,1,match,pilot2
32675,3,tob,2AFC - 4 pictures,3502663,22,tob,high,981.59500000019,3,1,match,pilot2
32675,3,tob,2AFC - 4 pictures,3528247,32,tob,high,1310.26500000735,3,1,match,pilot2
32675,3,tob,2AFC - 4 pictures,3528273,16,tob,high,3246.94500002079,1,1,match,pilot2
32675,3,tob,2AFC - 4 pictures,3502650,13,tob,high,1319.72000000019,1,1,match,pilot2
32675,3,tob,2AFC - 4 pictures,3528246,38,tob,high,2176.91999999806,3,1,match,pilot2
32775,3,tob,2AFC - 4 pictures,3528246,25,tob,high,1802.35500000708,3,1,match,pilot2
32775,3,tob,2AFC - 4 pictures,3517626,52,tob,high,1376.99999997858,1,1,match,pilot2
32775,3,tob,2AFC - 4 pictures,3528273,48,tob,high,2554.19500009157,1,1,match,pilot2
32775,3,tob,2AFC - 4 pictures,3518198,27,dep,high,1782.999999995809,2,0,mismatch-type1,pilot2
32775,3,tob,2AFC - 4 pictures,3528247,13,tob,high,1173.76000000513,3,1,match,pilot2
32775,3,tob,2AFC - 4 pictures,3502663,19,tob,high,1258.27000000027,3,1,match,pilot2
32775,3,tob,2AFC - 4 pictures,3517626,9,dep,high,1396.00000000792,1,0,mismatch-type1,pilot2
32775,3,tob,2AFC - 4 pictures,3502650,24,tob,high,976.004999999976,1,1,match,pilot2
32875,3,tob,2AFC - 4 pictures,3502650,49,tob,high,1751.29000000015,1,1,match,pilot2
32875,3,tob,2AFC - 4 pictures,3528273,54,tob,high,3269.91500006989,1,1,match,pilot2
32875,3,tob,2AFC - 4 pictures,3517626,18,tob,high,1907.00000000652,1,1,match,pilot2
33275,3,tob,2AFC - 4 pictures,3517616,55,tob,high,1084.6349999774247,2,1,match,pilot2
33275,3,tob,2AFC - 4 pictures,3528252,17,tob,high,1506.374999997206,2,1,match,pilot2
33475,3,tob,2AFC - 4 pictures,3528247,12,tob,high,1224.51000000001,3,1,match,pilot2
33475,3,tob,2AFC - 4 pictures,3528246,55,tob,high,1301.2999999919,3,1,match,pilot2
33475,3,tob,2AFC - 4 pictures,3502663,35,tob,high,1001.02000000016,3,1,match,pilot2
33575,3,tob,2AFC - 4 pictures,3528252,33,tob,high,1338.41999998549,2,1,match,pilot2
33575,3,tob,2AFC - 4 pictures,3517616,33,tob,high,1565.3699999966193,2,1,match,pilot2
33575,3,tob,2AFC - 4 pictures,3518198,25,tob,high,1853.9999999920838,2,1,match,pilot2
bim1,4,bim,2AFC - 4 pictures,3502663,49,bim,control_high,1359.26500000004,3,1,match,pilot2
bim1,4,bim,2AFC - 4 pictures,3528246,15,bim,control_high,1040.61000001093,3,1,match,pilot2
bim1,4,bim,2AFC - 4 pictures,3528247,4,bim,control_high,1023.28500000294,3,1,match,pilot2
bim10,4,bim,2AFC - 4 pictures,3502663,48,bim,control_low,1115.89000000001,3,1,match,pilot2
bim10,4,bim,2AFC - 4 pictures,3528247,24,bim,control_low,1222.96499999356,3,1,match,pilot2
bim10,4,bim,2AFC - 4 pictures,3528246,48,bim,control_low,1220.92500000144,3,1,match,pilot2
bim11,4,bim,2AFC - 4 pictures,3528252,54,bim,control_low,2423.580000002403,2,1,match,pilot2
bim11,4,bim,2AFC - 4 pictures,3517626,23,bim,control_high,1241.99999999837,1,1,match,pilot2
bim11,4,bim,2AFC - 4 pictures,3517616,34,bim,control_low,2118.1050000013784,2,1,match,pilot2
bim11,4,bim,2AFC - 4 pictures,3502650,32,bim,control_high,878.670000000042,1,1,match,pilot2
bim11,4,bim,2AFC - 4 pictures,3528273,2,bim,control_high,1153.58500019647,1,1,match,pilot2
bim11,4,bim,2AFC - 4 pictures,3518198,13,bim,control_low,1184.9999999976717,2,1,match,pilot2
bim12,4,bim,2AFC - 4 pictures,3528252,32,bim,control_high,1128.6700000055134,2,1,match,pilot2
bim12,4,bim,2AFC - 4 pictures,3502650,31,bim,control_low,1269.0500000001,1,1,match,pilot2
bim12,4,bim,2AFC - 4 pictures,3517616,37,bim,control_high,1998.2350000063889,2,1,match,pilot2
bim12,4,bim,2AFC - 4 pictures,3518198,29,bim,control_high,1017.9999999818392,2,1,match,pilot2
bim12,4,bim,2AFC - 4 pictures,3528273,12,bim,control_low,2315.35500008613,1,1,match,pilot2
bim12,4,bim,2AFC - 4 pictures,3528247,7,bim,control_low,1102.23499999847,3,1,match,pilot2
bim12,4,bim,2AFC - 4 pictures,3517626,4,bim,control_low,2116.00000000908,1,1,match,pilot2
bim12,4,bim,2AFC - 4 pictures,3528246,54,bim,control_low,1039.37500000757,3,1,match,pilot2
bim12,4,bim,2AFC - 4 pictures,3502663,26,bim,control_low,947.925000000396,3,1,match,pilot2
bim13,4,bim,2AFC - 4 pictures,3528247,48,bim,control_high,1219.96499999659,3,1,match,pilot2
bim13,4,bim,2AFC - 4 pictures,3528246,40,bim,control_high,1382.04499999119,3,1,match,pilot2
bim13,4,bim,2AFC - 4 pictures,3528273,19,bim,control_low,3417.99500002526,1,1,match,pilot2
bim13,4,bim,2AFC - 4 pictures,3502650,4,bim,control_low,1071.70500000006,1,1,match,pilot2
bim13,4,bim,2AFC - 4 pictures,3517626,53,bim,control_low,1320.00000000698,1,1,match,pilot2
bim13,4,bim,2AFC - 4 pictures,3502650,1,dep,low,3430.90000000007,1,0,errorControl-low,pilot2
bim13,4,bim,2AFC - 4 pictures,3502663,37,bim,control_high,1224.11499999999,3,1,match,pilot2
bim15,4,bim,2AFC - 4 pictures,3517616,38,bim,control_low,1338.3099999919068,2,1,match,pilot2
bim15,4,bim,2AFC - 4 pictures,3528246,33,bim,control_high,1128.46999999601,3,1,match,pilot2
bim15,4,bim,2AFC - 4 pictures,3502663,33,bim,control_high,1252.53999999995,3,1,match,pilot2
bim15,4,bim,2AFC - 4 pictures,3528247,26,bim,control_high,886.264999979176,3,1,match,pilot2
bim15,4,bim,2AFC - 4 pictures,3518198,52,bim,control_low,1195.000000006985,2,1,match,pilot2
bim15,4,bim,2AFC - 4 pictures,3528252,46,bim,control_low,2098.999999987427,2,1,match,pilot2
bim16,4,bim,2AFC - 4 pictures,3528273,8,bim,control_high,886.920000193641,1,1,match,pilot2
bim16,4,bim,2AFC - 4 pictures,3517626,8,bim,control_high,1320.99999999627,1,1,match,pilot2
bim16,4,bim,2AFC - 4 pictures,3502650,28,bim,control_high,1092.75500000012,1,1,match,pilot2
bim17,4,bim,2AFC - 4 pictures,3528252,36,bim,control_high,2230.664999980945,2,1,match,pilot2
bim17,4,bim,2AFC - 4 pictures,3518198,8,bim,control_high,1104.0000000502914,2,1,match,pilot2
bim17,4,bim,2AFC - 4 pictures,3517616,11,bim,control_high,1036.2099999911152,2,1,match,pilot2
bim18,4,bim,2AFC - 4 pictures,3528273,23,bim,control_low,1559.43999998271,1,1,match,pilot2
bim18,4,bim,2AFC - 4 pictures,3528246,23,bim,control_low,2515.37999999709,3,1,match,pilot2
bim18,4,bim,2AFC - 4 pictures,3502650,40,bim,control_low,1041.95999999999,1,1,match,pilot2
bim18,4,bim,2AFC - 4 pictures,3517626,29,bim,control_low,1545.99999997299,1,1,match,pilot2
bim18,4,bim,2AFC - 4 pictures,3528247,1,bim,control_low,1161.25500001363,3,1,match,pilot2
bim20,4,bim,2AFC - 4 pictures,3502663,34,wug,high,2490.35500000036,3,0,errorControl-high,pilot2
bim21,4,bim,2AFC - 4 pictures,3517616,4,bim,control_low,1392.8100000193808,2,1,match,pilot2
bim21,4,bim,2AFC - 4 pictures,3517616,20,bim,control_low,949.1049999778625,2,1,match,pilot2
bim21,4,bim,2AFC - 4 pictures,3518198,53,bim,control_low,954.0000000270084,2,1,match,pilot2
bim21,4,bim,2AFC - 4 pictures,3528252,12,bim,control_low,1601.0799999930896,2,1,match,pilot2
bim21,4,bim,2AFC - 4 pictures,3518198,47,bim,control_low,1266.0000000032596,2,1,match,pilot2
bim21,4,bim,2AFC - 4 pictures,3528252,48,bim,control_low,2202.0400000037625,2,1,match,pilot2
bim23,4,bim,2AFC - 4 pictures,3528252,50,bim,control_high,1294.6699999738485,2,1,match,pilot2
bim23,4,bim,2AFC - 4 pictures,3528273,40,bim,control_low,3080.61000006273,1,1,match,pilot2
bim23,4,bim,2AFC - 4 pictures,3502650,26,bim,control_low,833.785000000033,1,1,match,pilot2
bim23,4,bim,2AFC - 4 pictures,3517616,1,bim,control_high,1560.1800000004005,2,1,match,pilot2
bim23,4,bim,2AFC - 4 pictures,3518198,45,bim,control_high,851.0000000242144,2,1,match,pilot2
bim23,4,bim,2AFC - 4 pictures,3517626,7,bim,control_low,1326.00000000093,1,1,match,pilot2
bim24,4,bim,2AFC - 4 pictures,3502650,20,tob,high,3454.27500000005,1,0,errorControl-high,pilot2
bim24,4,bim,2AFC - 4 pictures,3528273,51,tob,low,2858.06999984197,1,0,errorControl-low,pilot2
bim25,4,bim,2AFC - 4 pictures,3517626,22,bim,control_high,1253.99999998626,1,1,match,pilot2
bim25,4,bim,2AFC - 4 pictures,3502650,34,bim,control_high,1089.99500000002,1,1,match,pilot2
bim25,4,bim,2AFC - 4 pictures,3528273,9,bim,control_high,2015.75500005856,1,1,match,pilot2
bim25,4,bim,2AFC - 4 pictures,3502650,23,dep,low,1545.65999999999,1,0,errorControl-low,pilot2
bim5,4,bim,2AFC - 4 pictures,3528252,43,bim,control_high,1368.1649999925867,2,1,match,pilot2
bim5,4,bim,2AFC - 4 pictures,3518198,14,bim,control_high,1005.9999999939464,2,1,match,pilot2
bim6,4,bim,2AFC - 4 pictures,3502650,47,bim,control_high,1017.76499999981,1,1,match,pilot2
bim7,4,bim,2AFC - 4 pictures,3502663,16,bim,control_low,910.990000000311,3,1,match,pilot2
bim7,4,bim,2AFC - 4 pictures,3528246,5,bim,control_low,1220.9700000094,3,1,match,pilot2
bim7,4,bim,2AFC - 4 pictures,3528247,51,bim,control_low,852.859999984503,3,1,match,pilot2
bim8,4,bim,2AFC - 4 pictures,3528246,18,bim,control_high,1283.43999999925,3,1,match,pilot2
bim8,4,bim,2AFC - 4 pictures,3502663,46,bim,control_high,1085.27500000037,3,1,match,pilot2
bim8,4,bim,2AFC - 4 pictures,3528247,2,bim,control_high,919.265000004089,3,1,match,pilot2
missing,NA,NA,2AFC - 4 pictures,3502047,21,bim,control_low,1254.10500005819,1,NA,timedOut,pilot2
missing,NA,NA,2AFC - 4 pictures,3502047,22,dep,high,491.600000066683,1,NA,timedOut,pilot2
missing,NA,NA,2AFC - 4 pictures,3502047,23,tob,high,596.119999885559,1,NA,timedOut,pilot2
missing,NA,NA,2AFC - 4 pictures,3502047,24,dep,low,646.550000179559,1,NA,timedOut,pilot2
missing,NA,NA,2AFC - 4 pictures,3502047,25,tob,high,875.075000105426,1,NA,timedOut,pilot2
missing,NA,NA,2AFC - 4 pictures,3528273,42,wug,high,3497.36900000001,1,NA,timedOut,pilot2
missing,NA,NA,2AFC - 4 pictures,3502663,7,tob,low,3499.86,3,NA,timedOut,pilot2
missing,NA,NA,2AFC - 4 pictures,3502047,28,dep,low,757.375000044703,1,NA,timedOut,pilot2
missing,NA,NA,2AFC - 4 pictures,3502047,29,wug,high,682.869999902323,1,NA,timedOut,pilot2
missing,NA,NA,2AFC - 4 pictures,3502047,30,tob,high,551.740000024438,1,NA,timedOut,pilot2
missing,NA,NA,2AFC - 4 pictures,3502663,51,bim,control_low,3499.86000000002,3,NA,timedOut,pilot2
missing,NA,NA,2AFC - 4 pictures,3502047,32,wug,high,445.109999971464,1,NA,timedOut,pilot2
missing,NA,NA,2AFC - 4 pictures,3502047,33,dep,high,397.615000139922,1,NA,timedOut,pilot2
missing,NA,NA,2AFC - 4 pictures,3502663,14,wug,high,3497.402,3,NA,timedOut,pilot2
missing,NA,NA,2AFC - 4 pictures,3502663,55,dep,low,3499.85999999999,3,NA,timedOut,pilot2
missing,NA,NA,2AFC - 4 pictures,3502047,36,wug,low,698.754999786615,1,NA,timedOut,pilot2
missing,NA,NA,2AFC - 4 pictures,3502047,37,wug,high,706.875000149012,1,NA,timedOut,pilot2
missing,NA,NA,2AFC - 4 pictures,3502047,38,dep,high,613.665000069886,1,NA,timedOut,pilot2
missing,NA,NA,2AFC - 4 pictures,3528246,3,dep,low,3492.599,3,NA,timedOut,pilot2
missing,NA,NA,2AFC - 4 pictures,3528273,56,tob,low,3497.43599999999,1,NA,timedOut,pilot2
missing,NA,NA,2AFC - 4 pictures,3502047,1,dep,low,2905.5249998346,1,NA,timedOut,pilot2
missing,NA,NA,2AFC - 4 pictures,3502047,2,tob,low,2905.90999997221,1,NA,timedOut,pilot2
missing,NA,NA,2AFC - 4 pictures,3502047,3,wug,low,1485.59000017121,1,NA,timedOut,pilot2
missing,NA,NA,2AFC - 4 pictures,3502047,4,dep,low,3501.54,1,NA,timedOut,pilot2
missing,NA,NA,2AFC - 4 pictures,3502047,5,wug,high,2580.63499978743,1,NA,timedOut,pilot2
missing,NA,NA,2AFC - 4 pictures,3502047,6,dep,low,1616.36999994516,1,NA,timedOut,pilot2
missing,NA,NA,2AFC - 4 pictures,3502047,7,tob,low,2208.24999990873,1,NA,timedOut,pilot2
missing,NA,NA,2AFC - 4 pictures,3502047,8,tob,low,774.375000037253,1,NA,timedOut,pilot2
missing,NA,NA,2AFC - 4 pictures,3502047,9,tob,high,1155.55999986827,1,NA,timedOut,pilot2
missing,NA,NA,2AFC - 4 pictures,3518198,48,dep,high,3500,2,NA,timedOut,pilot2
missing,NA,NA,2AFC - 4 pictures,3502047,11,dep,low,3501.54,1,NA,timedOut,pilot2
missing,NA,NA,2AFC - 4 pictures,3517626,3,dep,low,3501.54,1,NA,timedOut,pilot2
missing,NA,NA,2AFC - 4 pictures,3502047,13,wug,low,1064.49000001885,1,NA,timedOut,pilot2
missing,NA,NA,2AFC - 4 pictures,3502047,14,bim,control_high,765.79499989748,1,NA,timedOut,pilot2
missing,NA,NA,2AFC - 4 pictures,3517626,6,dep,low,3501.54,1,NA,timedOut,pilot2
missing,NA,NA,2AFC - 4 pictures,3502047,16,dep,high,773.985000094399,1,NA,timedOut,pilot2
missing,NA,NA,2AFC - 4 pictures,3502047,17,bim,control_low,727.34500002116,1,NA,timedOut,pilot2
missing,NA,NA,2AFC - 4 pictures,3502047,18,wug,high,648.559999885038,1,NA,timedOut,pilot2
missing,NA,NA,2AFC - 4 pictures,3502047,19,bim,control_high,1282.64500014484,1,NA,timedOut,pilot2
missing,NA,NA,2AFC - 4 pictures,3502047,20,wug,low,574.550000019372,1,NA,timedOut,pilot2
missing,NA,NA,2AFC - 4 pictures,3502047,34,dep,high,1302.57500009611,1,NA,timedOut,pilot2
missing,NA,NA,2AFC - 4 pictures,3518198,32,tob,high,3501,2,NA,timedOut,pilot2
missing,NA,NA,2AFC - 4 pictures,3517626,26,dep,low,3501.53999999999,1,NA,timedOut,pilot2
missing,NA,NA,2AFC - 4 pictures,3502047,35,wug,high,682.180000003427,1,NA,timedOut,pilot2
missing,NA,NA,2AFC - 4 pictures,3502047,51,dep,high,475.964999990538,1,NA,timedOut,pilot2
missing,NA,NA,2AFC - 4 pictures,3502047,26,wug,low,627.250000135973,1,NA,timedOut,pilot2
missing,NA,NA,2AFC - 4 pictures,3502047,27,bim,control_low,709.425000008196,1,NA,timedOut,pilot2
missing,NA,NA,2AFC - 4 pictures,3502047,41,tob,low,338.120000204071,1,NA,timedOut,pilot2
missing,NA,NA,2AFC - 4 pictures,3528246,6,tob,low,3492.59899999999,3,NA,timedOut,pilot2
missing,NA,NA,2AFC - 4 pictures,3502047,43,tob,high,1559.35500003397,1,NA,timedOut,pilot2
missing,NA,NA,2AFC - 4 pictures,3502047,44,tob,high,867.595000192523,1,NA,timedOut,pilot2
missing,NA,NA,2AFC - 4 pictures,3502047,31,wug,low,448.284999933094,1,NA,timedOut,pilot2
missing,NA,NA,2AFC - 4 pictures,3502047,46,bim,control_low,1216.87999996357,1,NA,timedOut,pilot2
missing,NA,NA,2AFC - 4 pictures,3502047,47,bim,control_high,769.220000132918,1,NA,timedOut,pilot2
missing,NA,NA,2AFC - 4 pictures,3502047,48,wug,low,518.735000165179,1,NA,match,pilot2
missing,NA,NA,2AFC - 4 pictures,3502047,49,tob,low,620.239999843761,1,NA,timedOut,pilot2
missing,NA,NA,2AFC - 4 pictures,3502047,50,bim,control_high,493.179999990389,1,NA,match,pilot2
missing,NA,NA,2AFC - 4 pictures,3502047,55,wug,high,444.665000075474,1,NA,match,pilot2
missing,NA,NA,2AFC - 4 pictures,3528246,43,dep,low,3492.77799999999,3,NA,match,pilot2
missing,NA,NA,2AFC - 4 pictures,3502047,40,tob,low,466.074999887496,1,NA,timedOut,pilot2
missing,NA,NA,2AFC - 4 pictures,3502047,54,dep,low,631.969999987632,1,NA,match,pilot2
missing,NA,NA,2AFC - 4 pictures,3528246,31,wug,high,3492.77799999999,3,NA,timedOut,pilot2
missing,NA,NA,2AFC - 4 pictures,3502047,56,wug,high,494.674999965355,1,NA,match,pilot2
missing,NA,NA,2AFC - 4 pictures,3528273,32,tob,high,3497.59499999997,1,NA,match,pilot2
missing,NA,NA,2AFC - 4 pictures,3502047,45,dep,high,981.129999971017,1,NA,match,pilot2
missing,NA,NA,2AFC - 4 pictures,3528273,33,wug,high,3497.49799999999,1,NA,match,pilot2
missing,NA,NA,2AFC - 4 pictures,3528273,21,dep,low,3497.614,1,NA,match,pilot2
missing,NA,NA,2AFC - 4 pictures,3502047,52,tob,low,491.494999965653,1,NA,match,pilot2
missing,NA,NA,2AFC - 4 pictures,3502047,53,tob,low,487.669999944046,1,NA,timedOut,pilot2
missing,NA,NA,2AFC - 4 pictures,3528273,27,wug,high,3497.52800000001,1,NA,timedOut,pilot2
missing,NA,NA,2AFC - 4 pictures,3502047,39,dep,high,541.075000073761,1,NA,timedOut,pilot2
missing,NA,NA,2AFC - 4 pictures,3528273,30,wug,high,3497.815,1,NA,timedOut,pilot2
missing,NA,NA,2AFC - 4 pictures,3502650,9,wug,low,3500.07,1,NA,mismatch-type2,pilot2
missing,NA,NA,2AFC - 4 pictures,3502047,15,tob,high,1133.50000022911,1,NA,timedOut,pilot2
missing,NA,NA,2AFC - 4 pictures,3502650,6,dep,low,3500.623,1,NA,mismatch-type1,pilot2
missing,NA,NA,2AFC - 4 pictures,3502047,12,dep,low,3495.909,1,NA,timedOut,pilot2
missing,NA,NA,2AFC - 4 pictures,3502047,10,tob,high,1009.13000013679,1,NA,mismatch-type1,pilot2
missing,NA,NA,2AFC - 4 pictures,3518198,1,dep,low,3500,2,NA,match,pilot2
missing,NA,NA,2AFC - 4 pictures,3502047,42,wug,low,903.429999947548,1,NA,match,pilot2
missing,NA,NA,2AFC - 4 pictures,3528273,14,wug,high,3497.586,1,NA,match,pilot2
